onset	duration	trial_type	response_time	confidence	detection	stimulus	response	key_id
10.07	4.83	NN	0.92	6	1	0	0	n/a
10.99	0	button press	n/a	n/a	n/a	n/a	n/a	50
11.99	0	button press	n/a	n/a	n/a	n/a	n/a	54
17.83	4.83	YN	0.88	4	1	1	0	n/a
18.71	0	button press	n/a	n/a	n/a	n/a	n/a	50
20.71	0	button press	n/a	n/a	n/a	n/a	n/a	54
25.10	4.83	NY	0.75	4	1	0	1	n/a
25.85	0	button press	n/a	n/a	n/a	n/a	n/a	51
27.32	0	button press	n/a	n/a	n/a	n/a	n/a	54
27.97	0	button press	n/a	n/a	n/a	n/a	n/a	54
32.43	4.83	NY	1.18	5	1	0	1	n/a
33.61	0	button press	n/a	n/a	n/a	n/a	n/a	51
34.64	0	button press	n/a	n/a	n/a	n/a	n/a	54
40.22	4.83	YY	1.10	4	1	1	1	n/a
41.32	0	button press	n/a	n/a	n/a	n/a	n/a	51
42.32	0	button press	n/a	n/a	n/a	n/a	n/a	54
47.60	4.83	YN	1.52	3	1	3	0	n/a
49.11	0	button press	n/a	n/a	n/a	n/a	n/a	50
50.99	0	button press	n/a	n/a	n/a	n/a	n/a	55
51.59	0	button press	n/a	n/a	n/a	n/a	n/a	55
56.20	4.83	NN	1.00	4	1	0	0	n/a
57.20	0	button press	n/a	n/a	n/a	n/a	n/a	50
58.07	0	button press	n/a	n/a	n/a	n/a	n/a	54
58.48	0	button press	n/a	n/a	n/a	n/a	n/a	54
58.68	0	button press	n/a	n/a	n/a	n/a	n/a	54
63.08	4.83	YN	0.73	6	1	3	0	n/a
63.81	0	button press	n/a	n/a	n/a	n/a	n/a	50
69.89	4.83	NN	1.25	4	1	0	0	n/a
71.13	0	button press	n/a	n/a	n/a	n/a	n/a	50
72.50	0	button press	n/a	n/a	n/a	n/a	n/a	55
76.43	4.83	NN	0.95	5	1	0	0	n/a
77.38	0	button press	n/a	n/a	n/a	n/a	n/a	50
78.71	0	button press	n/a	n/a	n/a	n/a	n/a	55
84.02	4.83	NN	1.25	3	1	0	0	n/a
85.27	0	button press	n/a	n/a	n/a	n/a	n/a	50
86.38	0	button press	n/a	n/a	n/a	n/a	n/a	55
86.88	0	button press	n/a	n/a	n/a	n/a	n/a	55
90.13	4.83	YY	0.68	6	1	1	1	n/a
90.81	0	button press	n/a	n/a	n/a	n/a	n/a	51
92.01	0	button press	n/a	n/a	n/a	n/a	n/a	54
92.18	0	button press	n/a	n/a	n/a	n/a	n/a	54
92.36	0	button press	n/a	n/a	n/a	n/a	n/a	54
97.37	4.83	YY	0.77	4	1	3	1	n/a
98.14	0	button press	n/a	n/a	n/a	n/a	n/a	51
99.52	0	button press	n/a	n/a	n/a	n/a	n/a	54
103.26	4.83	YY	1.03	4	1	3	1	n/a
104.30	0	button press	n/a	n/a	n/a	n/a	n/a	51
105.28	0	button press	n/a	n/a	n/a	n/a	n/a	54
105.50	0	button press	n/a	n/a	n/a	n/a	n/a	54
105.71	0	button press	n/a	n/a	n/a	n/a	n/a	54
109.99	4.83	YY	0.82	5	1	1	1	n/a
110.81	0	button press	n/a	n/a	n/a	n/a	n/a	51
112.67	0	button press	n/a	n/a	n/a	n/a	n/a	55
118.68	4.83	NN	0.70	5	1	0	0	n/a
119.38	0	button press	n/a	n/a	n/a	n/a	n/a	50
120.49	0	button press	n/a	n/a	n/a	n/a	n/a	54
120.71	0	button press	n/a	n/a	n/a	n/a	n/a	54
120.89	0	button press	n/a	n/a	n/a	n/a	n/a	54
121.06	0	button press	n/a	n/a	n/a	n/a	n/a	54
125.99	4.83	YN	0.70	6	1	3	0	n/a
126.69	0	button press	n/a	n/a	n/a	n/a	n/a	50
127.92	0	button press	n/a	n/a	n/a	n/a	n/a	54
128.32	0	button press	n/a	n/a	n/a	n/a	n/a	54
128.50	0	button press	n/a	n/a	n/a	n/a	n/a	54
128.97	0	button press	n/a	n/a	n/a	n/a	n/a	54
132.90	4.83	NN	0.67	5	1	0	0	n/a
133.56	0	button press	n/a	n/a	n/a	n/a	n/a	50
134.98	0	button press	n/a	n/a	n/a	n/a	n/a	54
135.24	0	button press	n/a	n/a	n/a	n/a	n/a	54
135.66	0	button press	n/a	n/a	n/a	n/a	n/a	54
141.49	4.83	NN	1.15	4	1	0	0	n/a
142.64	0	button press	n/a	n/a	n/a	n/a	n/a	50
144.17	0	button press	n/a	n/a	n/a	n/a	n/a	55
147.40	4.83	NN	1.08	4	1	0	0	n/a
148.48	0	button press	n/a	n/a	n/a	n/a	n/a	50
149.65	0	button press	n/a	n/a	n/a	n/a	n/a	55
150.19	0	button press	n/a	n/a	n/a	n/a	n/a	54
156.07	4.83	YN	1.17	2	1	3	0	n/a
157.24	0	button press	n/a	n/a	n/a	n/a	n/a	50
158.25	0	button press	n/a	n/a	n/a	n/a	n/a	55
158.58	0	button press	n/a	n/a	n/a	n/a	n/a	55
159.13	0	button press	n/a	n/a	n/a	n/a	n/a	55
164.23	4.83	YY	0.78	3	1	3	1	n/a
165.01	0	button press	n/a	n/a	n/a	n/a	n/a	51
166.46	0	button press	n/a	n/a	n/a	n/a	n/a	55
166.73	0	button press	n/a	n/a	n/a	n/a	n/a	55
171.05	4.83	YY	1.27	2	1	3	1	n/a
172.32	0	button press	n/a	n/a	n/a	n/a	n/a	51
173.25	0	button press	n/a	n/a	n/a	n/a	n/a	55
173.58	0	button press	n/a	n/a	n/a	n/a	n/a	55
173.98	0	button press	n/a	n/a	n/a	n/a	n/a	55
177.01	4.83	NN	0.92	5	1	0	0	n/a
177.93	0	button press	n/a	n/a	n/a	n/a	n/a	50
179.31	0	button press	n/a	n/a	n/a	n/a	n/a	54
184.87	4.83	YN	0.83	4	1	1	0	n/a
185.70	0	button press	n/a	n/a	n/a	n/a	n/a	50
187.42	0	button press	n/a	n/a	n/a	n/a	n/a	55
193.31	4.83	NN	0.82	4	1	0	0	n/a
194.13	0	button press	n/a	n/a	n/a	n/a	n/a	50
195.48	0	button press	n/a	n/a	n/a	n/a	n/a	55
201.95	4.83	NY	0.95	3	1	0	1	n/a
202.90	0	button press	n/a	n/a	n/a	n/a	n/a	51
205.38	0	button press	n/a	n/a	n/a	n/a	n/a	55
207.98	4.83	YN	0.88	6	1	1	0	n/a
208.86	0	button press	n/a	n/a	n/a	n/a	n/a	50
210.12	0	button press	n/a	n/a	n/a	n/a	n/a	54
214.75	4.83	NN	0.83	3	1	0	0	n/a
215.59	0	button press	n/a	n/a	n/a	n/a	n/a	50
217.18	0	button press	n/a	n/a	n/a	n/a	n/a	55
218.25	0	button press	n/a	n/a	n/a	n/a	n/a	55
221.36	4.83	NY	0.91	3	1	0	1	n/a
222.28	0	button press	n/a	n/a	n/a	n/a	n/a	51
223.59	0	button press	n/a	n/a	n/a	n/a	n/a	55
224.69	0	button press	n/a	n/a	n/a	n/a	n/a	54
229.24	4.83	NN	1.00	5	1	0	0	n/a
230.24	0	button press	n/a	n/a	n/a	n/a	n/a	50
231.12	0	button press	n/a	n/a	n/a	n/a	n/a	54
237.66	4.83	YY	1.00	4	1	1	1	n/a
238.66	0	button press	n/a	n/a	n/a	n/a	n/a	51
239.56	0	button press	n/a	n/a	n/a	n/a	n/a	54
240.07	0	button press	n/a	n/a	n/a	n/a	n/a	54
240.64	0	button press	n/a	n/a	n/a	n/a	n/a	54
243.82	4.83	NY	0.80	4	1	0	1	n/a
244.62	0	button press	n/a	n/a	n/a	n/a	n/a	51
246.22	0	button press	n/a	n/a	n/a	n/a	n/a	55
246.75	0	button press	n/a	n/a	n/a	n/a	n/a	55
249.90	4.83	YN	0.82	5	1	1	0	n/a
250.71	0	button press	n/a	n/a	n/a	n/a	n/a	50
258.45	4.83	YN	0.75	4	1	1	0	n/a
259.20	0	button press	n/a	n/a	n/a	n/a	n/a	50
260.50	0	button press	n/a	n/a	n/a	n/a	n/a	54
260.82	0	button press	n/a	n/a	n/a	n/a	n/a	54
264.58	4.83	YN	0.73	5	1	1	0	n/a
265.31	0	button press	n/a	n/a	n/a	n/a	n/a	50
272.87	4.83	YY	0.78	5	1	3	1	n/a
273.65	0	button press	n/a	n/a	n/a	n/a	n/a	51
274.82	0	button press	n/a	n/a	n/a	n/a	n/a	54
280.25	4.83	NY	0.77	4	1	0	1	n/a
281.01	0	button press	n/a	n/a	n/a	n/a	n/a	51
282.14	0	button press	n/a	n/a	n/a	n/a	n/a	54
288.20	4.83	YN	0.68	6	1	3	0	n/a
288.89	0	button press	n/a	n/a	n/a	n/a	n/a	50
290.25	0	button press	n/a	n/a	n/a	n/a	n/a	54
290.47	0	button press	n/a	n/a	n/a	n/a	n/a	54
290.68	0	button press	n/a	n/a	n/a	n/a	n/a	54
290.87	0	button press	n/a	n/a	n/a	n/a	n/a	54
294.51	4.83	NN	1.02	3	1	0	0	n/a
295.53	0	button press	n/a	n/a	n/a	n/a	n/a	50
296.51	0	button press	n/a	n/a	n/a	n/a	n/a	54
312.91	4.83	AA	0.65	6	0	3	3	n/a
313.56	0	button press	n/a	n/a	n/a	n/a	n/a	51
315.09	0	button press	n/a	n/a	n/a	n/a	n/a	54
315.30	0	button press	n/a	n/a	n/a	n/a	n/a	54
315.50	0	button press	n/a	n/a	n/a	n/a	n/a	54
315.64	0	button press	n/a	n/a	n/a	n/a	n/a	54
315.79	0	button press	n/a	n/a	n/a	n/a	n/a	54
319.07	4.83	CC	0.63	6	0	1	1	n/a
319.70	0	button press	n/a	n/a	n/a	n/a	n/a	50
320.57	0	button press	n/a	n/a	n/a	n/a	n/a	54
321.05	0	button press	n/a	n/a	n/a	n/a	n/a	54
321.40	0	button press	n/a	n/a	n/a	n/a	n/a	54
326.91	4.83	AA	0.53	6	0	3	3	n/a
327.44	0	button press	n/a	n/a	n/a	n/a	n/a	51
328.71	0	button press	n/a	n/a	n/a	n/a	n/a	54
328.96	0	button press	n/a	n/a	n/a	n/a	n/a	54
333.47	4.83	AA	0.55	6	0	3	3	n/a
334.02	0	button press	n/a	n/a	n/a	n/a	n/a	51
339.63	4.83	CC	0.58	6	0	1	1	n/a
340.21	0	button press	n/a	n/a	n/a	n/a	n/a	50
341.34	0	button press	n/a	n/a	n/a	n/a	n/a	54
341.59	0	button press	n/a	n/a	n/a	n/a	n/a	54
341.82	0	button press	n/a	n/a	n/a	n/a	n/a	54
342.21	0	button press	n/a	n/a	n/a	n/a	n/a	54
342.37	0	button press	n/a	n/a	n/a	n/a	n/a	54
342.56	0	button press	n/a	n/a	n/a	n/a	n/a	54
345.84	4.83	CC	0.73	6	0	1	1	n/a
346.57	0	button press	n/a	n/a	n/a	n/a	n/a	50
347.53	0	button press	n/a	n/a	n/a	n/a	n/a	54
353.34	4.83	CC	0.53	6	0	1	1	n/a
353.88	0	button press	n/a	n/a	n/a	n/a	n/a	50
354.89	0	button press	n/a	n/a	n/a	n/a	n/a	54
359.77	4.83	AC	0.87	4	0	3	1	n/a
360.64	0	button press	n/a	n/a	n/a	n/a	n/a	50
368.24	4.83	CC	0.72	4	0	1	1	n/a
368.96	0	button press	n/a	n/a	n/a	n/a	n/a	50
370.23	0	button press	n/a	n/a	n/a	n/a	n/a	54
370.49	0	button press	n/a	n/a	n/a	n/a	n/a	54
375.59	4.83	AA	0.57	6	0	3	3	n/a
376.15	0	button press	n/a	n/a	n/a	n/a	n/a	51
377.53	0	button press	n/a	n/a	n/a	n/a	n/a	54
382.79	4.83	AA	0.65	6	0	3	3	n/a
383.44	0	button press	n/a	n/a	n/a	n/a	n/a	51
384.84	0	button press	n/a	n/a	n/a	n/a	n/a	54
385.10	0	button press	n/a	n/a	n/a	n/a	n/a	54
385.34	0	button press	n/a	n/a	n/a	n/a	n/a	54
385.54	0	button press	n/a	n/a	n/a	n/a	n/a	54
390.00	4.83	AA	0.65	5	0	3	3	n/a
390.65	0	button press	n/a	n/a	n/a	n/a	n/a	51
392.17	0	button press	n/a	n/a	n/a	n/a	n/a	54
392.37	0	button press	n/a	n/a	n/a	n/a	n/a	54
392.58	0	button press	n/a	n/a	n/a	n/a	n/a	54
397.93	4.83	CC	0.68	4	0	1	1	n/a
398.61	0	button press	n/a	n/a	n/a	n/a	n/a	50
400.29	0	button press	n/a	n/a	n/a	n/a	n/a	55
404.70	4.83	CC	0.75	5	0	1	1	n/a
405.45	0	button press	n/a	n/a	n/a	n/a	n/a	50
407.07	0	button press	n/a	n/a	n/a	n/a	n/a	55
413.29	4.83	AA	0.52	6	0	3	3	n/a
413.81	0	button press	n/a	n/a	n/a	n/a	n/a	51
419.07	4.83	AA	0.52	6	0	3	3	n/a
419.59	0	button press	n/a	n/a	n/a	n/a	n/a	51
421.12	0	button press	n/a	n/a	n/a	n/a	n/a	54
426.98	4.83	AA	0.82	4	0	3	3	n/a
427.79	0	button press	n/a	n/a	n/a	n/a	n/a	51
434.88	4.83	CC	0.65	6	0	1	1	n/a
435.53	0	button press	n/a	n/a	n/a	n/a	n/a	50
436.80	0	button press	n/a	n/a	n/a	n/a	n/a	54
437.07	0	button press	n/a	n/a	n/a	n/a	n/a	54
437.26	0	button press	n/a	n/a	n/a	n/a	n/a	54
442.84	4.83	CC	0.67	5	0	1	1	n/a
443.51	0	button press	n/a	n/a	n/a	n/a	n/a	50
444.79	0	button press	n/a	n/a	n/a	n/a	n/a	54
451.12	4.83	AA	0.57	6	0	3	3	n/a
451.68	0	button press	n/a	n/a	n/a	n/a	n/a	51
457.91	4.83	AA	0.87	6	0	3	3	n/a
458.77	0	button press	n/a	n/a	n/a	n/a	n/a	51
460.29	0	button press	n/a	n/a	n/a	n/a	n/a	54
460.62	0	button press	n/a	n/a	n/a	n/a	n/a	54
460.99	0	button press	n/a	n/a	n/a	n/a	n/a	54
465.70	4.83	AC	0.87	5	0	3	1	n/a
466.57	0	button press	n/a	n/a	n/a	n/a	n/a	50
467.71	0	button press	n/a	n/a	n/a	n/a	n/a	54
474.34	4.83	CC	0.57	6	0	1	1	n/a
474.91	0	button press	n/a	n/a	n/a	n/a	n/a	50
476.15	0	button press	n/a	n/a	n/a	n/a	n/a	54
479.98	4.83	CA	0.92	4	0	1	3	n/a
480.90	0	button press	n/a	n/a	n/a	n/a	n/a	51
482.46	0	button press	n/a	n/a	n/a	n/a	n/a	55
483.38	0	button press	n/a	n/a	n/a	n/a	n/a	54
487.46	4.83	CC	0.55	6	0	1	1	n/a
488.01	0	button press	n/a	n/a	n/a	n/a	n/a	50
489.57	0	button press	n/a	n/a	n/a	n/a	n/a	54
494.60	4.83	CC	0.73	4	0	1	1	n/a
495.33	0	button press	n/a	n/a	n/a	n/a	n/a	50
496.60	0	button press	n/a	n/a	n/a	n/a	n/a	54
497.16	0	button press	n/a	n/a	n/a	n/a	n/a	54
501.33	4.83	AA	1.05	3	0	3	3	n/a
502.38	0	button press	n/a	n/a	n/a	n/a	n/a	51
509.83	4.83	AC	1.17	3	0	3	1	n/a
511.00	0	button press	n/a	n/a	n/a	n/a	n/a	50
516.69	4.83	CA	1.28	3	0	1	3	n/a
517.97	0	button press	n/a	n/a	n/a	n/a	n/a	51
519.39	0	button press	n/a	n/a	n/a	n/a	n/a	55
519.72	0	button press	n/a	n/a	n/a	n/a	n/a	55
520.05	0	button press	n/a	n/a	n/a	n/a	n/a	55
524.00	4.83	AA	1.07	6	0	3	3	n/a
525.06	0	button press	n/a	n/a	n/a	n/a	n/a	51
525.91	0	button press	n/a	n/a	n/a	n/a	n/a	54
526.13	0	button press	n/a	n/a	n/a	n/a	n/a	54
526.58	0	button press	n/a	n/a	n/a	n/a	n/a	54
531.79	4.83	AC	1.28	2	0	3	1	n/a
533.07	0	button press	n/a	n/a	n/a	n/a	n/a	50
534.44	0	button press	n/a	n/a	n/a	n/a	n/a	55
539.90	4.83	CC	1.15	5	0	1	1	n/a
541.05	0	button press	n/a	n/a	n/a	n/a	n/a	50
542.08	0	button press	n/a	n/a	n/a	n/a	n/a	54
546.42	4.83	CC	0.63	6	0	1	1	n/a
547.06	0	button press	n/a	n/a	n/a	n/a	n/a	50
548.40	0	button press	n/a	n/a	n/a	n/a	n/a	54
548.60	0	button press	n/a	n/a	n/a	n/a	n/a	54
548.80	0	button press	n/a	n/a	n/a	n/a	n/a	54
548.97	0	button press	n/a	n/a	n/a	n/a	n/a	54
549.15	0	button press	n/a	n/a	n/a	n/a	n/a	54
552.05	4.83	CC	0.80	6	0	1	1	n/a
552.85	0	button press	n/a	n/a	n/a	n/a	n/a	50
554.06	0	button press	n/a	n/a	n/a	n/a	n/a	54
554.30	0	button press	n/a	n/a	n/a	n/a	n/a	54
554.66	0	button press	n/a	n/a	n/a	n/a	n/a	54
560.13	4.83	CC	0.58	6	0	1	1	n/a
560.71	0	button press	n/a	n/a	n/a	n/a	n/a	50
562.02	0	button press	n/a	n/a	n/a	n/a	n/a	54
562.26	0	button press	n/a	n/a	n/a	n/a	n/a	54
562.45	0	button press	n/a	n/a	n/a	n/a	n/a	54
562.64	0	button press	n/a	n/a	n/a	n/a	n/a	54
567.13	4.83	AA	1.43	3	0	3	3	n/a
568.56	0	button press	n/a	n/a	n/a	n/a	n/a	51
574.49	4.83	AA	0.75	5	0	3	3	n/a
575.24	0	button press	n/a	n/a	n/a	n/a	n/a	51
581.30	4.83	CC	0.73	5	0	1	1	n/a
582.03	0	button press	n/a	n/a	n/a	n/a	n/a	50
587.76	4.83	AA	1.02	4	0	3	3	n/a
588.78	0	button press	n/a	n/a	n/a	n/a	n/a	51
590.37	0	button press	n/a	n/a	n/a	n/a	n/a	55
590.86	0	button press	n/a	n/a	n/a	n/a	n/a	55
593.90	4.83	CC	0.88	2	0	1	1	n/a
594.79	0	button press	n/a	n/a	n/a	n/a	n/a	50
