onset	duration	trial_type	response_time	confidence	detection	stimulus	response	key_id
10.06	4.83	YY	1.01	6	1	3	1	n/a
11.07	0	button press	n/a	n/a	n/a	n/a	n/a	51
12.19	0	button press	n/a	n/a	n/a	n/a	n/a	54
12.72	0	button press	n/a	n/a	n/a	n/a	n/a	54
13.00	0	button press	n/a	n/a	n/a	n/a	n/a	54
13.25	0	button press	n/a	n/a	n/a	n/a	n/a	54
13.53	0	button press	n/a	n/a	n/a	n/a	n/a	54
17.33	4.83	YY	0.78	5	1	1	1	n/a
18.11	0	button press	n/a	n/a	n/a	n/a	n/a	51
19.49	0	button press	n/a	n/a	n/a	n/a	n/a	54
19.78	0	button press	n/a	n/a	n/a	n/a	n/a	54
20.01	0	button press	n/a	n/a	n/a	n/a	n/a	54
23.81	4.83	YN	0.80	2	1	1	0	n/a
24.60	0	button press	n/a	n/a	n/a	n/a	n/a	50
26.20	0	button press	n/a	n/a	n/a	n/a	n/a	54
26.67	0	button press	n/a	n/a	n/a	n/a	n/a	55
27.17	0	button press	n/a	n/a	n/a	n/a	n/a	55
32.15	4.83	YN	0.95	2	1	1	0	n/a
33.09	0	button press	n/a	n/a	n/a	n/a	n/a	50
34.39	0	button press	n/a	n/a	n/a	n/a	n/a	55
34.74	0	button press	n/a	n/a	n/a	n/a	n/a	55
35.54	0	button press	n/a	n/a	n/a	n/a	n/a	55
40.21	4.83	NN	1.12	2	1	0	0	n/a
41.32	0	button press	n/a	n/a	n/a	n/a	n/a	50
42.65	0	button press	n/a	n/a	n/a	n/a	n/a	54
43.27	0	button press	n/a	n/a	n/a	n/a	n/a	54
43.80	0	button press	n/a	n/a	n/a	n/a	n/a	55
46.51	4.83	YY	0.78	6	1	3	1	n/a
47.29	0	button press	n/a	n/a	n/a	n/a	n/a	51
48.33	0	button press	n/a	n/a	n/a	n/a	n/a	54
48.71	0	button press	n/a	n/a	n/a	n/a	n/a	54
48.93	0	button press	n/a	n/a	n/a	n/a	n/a	54
49.38	0	button press	n/a	n/a	n/a	n/a	n/a	54
52.47	4.83	YY	0.80	6	1	3	1	n/a
53.27	0	button press	n/a	n/a	n/a	n/a	n/a	51
54.17	0	button press	n/a	n/a	n/a	n/a	n/a	54
54.39	0	button press	n/a	n/a	n/a	n/a	n/a	54
61.01	4.83	NN	0.97	2	1	0	0	n/a
61.98	0	button press	n/a	n/a	n/a	n/a	n/a	50
63.66	0	button press	n/a	n/a	n/a	n/a	n/a	55
68.05	4.83	NN	1.00	3	1	0	0	n/a
69.05	0	button press	n/a	n/a	n/a	n/a	n/a	50
71.03	0	button press	n/a	n/a	n/a	n/a	n/a	54
71.32	0	button press	n/a	n/a	n/a	n/a	n/a	54
73.81	4.83	NN	0.82	2	1	0	0	n/a
74.63	0	button press	n/a	n/a	n/a	n/a	n/a	50
75.78	0	button press	n/a	n/a	n/a	n/a	n/a	54
76.24	0	button press	n/a	n/a	n/a	n/a	n/a	55
76.51	0	button press	n/a	n/a	n/a	n/a	n/a	55
76.81	0	button press	n/a	n/a	n/a	n/a	n/a	55
77.11	0	button press	n/a	n/a	n/a	n/a	n/a	55
78.00	0	button press	n/a	n/a	n/a	n/a	n/a	54
82.42	4.83	YY	0.83	6	1	1	1	n/a
83.25	0	button press	n/a	n/a	n/a	n/a	n/a	51
84.25	0	button press	n/a	n/a	n/a	n/a	n/a	54
84.47	0	button press	n/a	n/a	n/a	n/a	n/a	54
90.36	4.83	NY	0.68	4	1	0	1	n/a
91.04	0	button press	n/a	n/a	n/a	n/a	n/a	51
92.68	0	button press	n/a	n/a	n/a	n/a	n/a	54
93.01	0	button press	n/a	n/a	n/a	n/a	n/a	54
93.46	0	button press	n/a	n/a	n/a	n/a	n/a	54
98.53	4.83	NY	1.05	2	1	0	1	n/a
99.58	0	button press	n/a	n/a	n/a	n/a	n/a	51
100.92	0	button press	n/a	n/a	n/a	n/a	n/a	55
101.68	0	button press	n/a	n/a	n/a	n/a	n/a	55
102.13	0	button press	n/a	n/a	n/a	n/a	n/a	55
104.16	4.83	YY	0.73	6	1	1	1	n/a
104.89	0	button press	n/a	n/a	n/a	n/a	n/a	51
105.31	0	button press	n/a	n/a	n/a	n/a	n/a	54
105.99	0	button press	n/a	n/a	n/a	n/a	n/a	54
106.24	0	button press	n/a	n/a	n/a	n/a	n/a	54
111.77	4.83	NY	0.98	2	1	0	1	n/a
112.75	0	button press	n/a	n/a	n/a	n/a	n/a	51
114.18	0	button press	n/a	n/a	n/a	n/a	n/a	55
114.48	0	button press	n/a	n/a	n/a	n/a	n/a	55
118.83	4.83	YY	1.53	2	1	3	1	n/a
120.36	0	button press	n/a	n/a	n/a	n/a	n/a	51
121.06	0	button press	n/a	n/a	n/a	n/a	n/a	55
121.34	0	button press	n/a	n/a	n/a	n/a	n/a	55
121.59	0	button press	n/a	n/a	n/a	n/a	n/a	55
122.77	0	button press	n/a	n/a	n/a	n/a	n/a	55
122.99	0	button press	n/a	n/a	n/a	n/a	n/a	55
126.45	4.83	NN	0.82	1	1	0	0	n/a
127.27	0	button press	n/a	n/a	n/a	n/a	n/a	50
128.43	0	button press	n/a	n/a	n/a	n/a	n/a	55
128.63	0	button press	n/a	n/a	n/a	n/a	n/a	55
133.06	4.83	NN	1.02	1	1	0	0	n/a
134.08	0	button press	n/a	n/a	n/a	n/a	n/a	50
135.09	0	button press	n/a	n/a	n/a	n/a	n/a	54
135.74	0	button press	n/a	n/a	n/a	n/a	n/a	55
141.12	4.83	NY	1.00	2	1	0	1	n/a
142.12	0	button press	n/a	n/a	n/a	n/a	n/a	51
143.48	0	button press	n/a	n/a	n/a	n/a	n/a	55
143.70	0	button press	n/a	n/a	n/a	n/a	n/a	55
143.90	0	button press	n/a	n/a	n/a	n/a	n/a	55
144.35	0	button press	n/a	n/a	n/a	n/a	n/a	55
149.16	4.83	YN	0.97	3	1	3	0	n/a
150.12	0	button press	n/a	n/a	n/a	n/a	n/a	50
151.99	0	button press	n/a	n/a	n/a	n/a	n/a	54
156.42	4.83	NY	1.30	2	1	0	1	n/a
157.72	0	button press	n/a	n/a	n/a	n/a	n/a	51
158.77	0	button press	n/a	n/a	n/a	n/a	n/a	54
163.84	4.83	missed_trial	n/a	n/a	1	1	n/a	n/a
165.71	0	button press	n/a	n/a	n/a	n/a	n/a	50
172.25	4.83	YN	0.87	3	1	1	0	n/a
173.12	0	button press	n/a	n/a	n/a	n/a	n/a	50
174.86	0	button press	n/a	n/a	n/a	n/a	n/a	55
180.21	4.83	NN	0.90	3	1	0	0	n/a
181.11	0	button press	n/a	n/a	n/a	n/a	n/a	50
182.49	0	button press	n/a	n/a	n/a	n/a	n/a	55
182.74	0	button press	n/a	n/a	n/a	n/a	n/a	55
182.95	0	button press	n/a	n/a	n/a	n/a	n/a	55
187.33	4.83	NY	0.80	6	1	0	1	n/a
188.13	0	button press	n/a	n/a	n/a	n/a	n/a	51
189.05	0	button press	n/a	n/a	n/a	n/a	n/a	54
193.14	4.83	YY	0.65	6	1	1	1	n/a
193.79	0	button press	n/a	n/a	n/a	n/a	n/a	51
194.94	0	button press	n/a	n/a	n/a	n/a	n/a	54
195.31	0	button press	n/a	n/a	n/a	n/a	n/a	54
195.57	0	button press	n/a	n/a	n/a	n/a	n/a	54
196.19	0	button press	n/a	n/a	n/a	n/a	n/a	54
199.27	4.83	NY	0.72	6	1	0	1	n/a
199.98	0	button press	n/a	n/a	n/a	n/a	n/a	51
201.13	0	button press	n/a	n/a	n/a	n/a	n/a	54
202.05	0	button press	n/a	n/a	n/a	n/a	n/a	54
207.08	4.83	YN	0.98	3	1	3	0	n/a
208.06	0	button press	n/a	n/a	n/a	n/a	n/a	50
209.71	0	button press	n/a	n/a	n/a	n/a	n/a	55
210.17	0	button press	n/a	n/a	n/a	n/a	n/a	55
210.47	0	button press	n/a	n/a	n/a	n/a	n/a	55
215.38	4.83	NN	1.05	2	1	0	0	n/a
216.43	0	button press	n/a	n/a	n/a	n/a	n/a	50
218.76	0	button press	n/a	n/a	n/a	n/a	n/a	55
219.34	0	button press	n/a	n/a	n/a	n/a	n/a	54
222.92	4.83	YY	1.30	3	1	3	1	n/a
224.22	0	button press	n/a	n/a	n/a	n/a	n/a	51
231.13	4.83	NN	0.78	2	1	0	0	n/a
231.91	0	button press	n/a	n/a	n/a	n/a	n/a	50
233.68	0	button press	n/a	n/a	n/a	n/a	n/a	55
238.94	4.83	NY	1.27	5	1	0	1	n/a
240.20	0	button press	n/a	n/a	n/a	n/a	n/a	51
241.04	0	button press	n/a	n/a	n/a	n/a	n/a	54
241.25	0	button press	n/a	n/a	n/a	n/a	n/a	54
241.49	0	button press	n/a	n/a	n/a	n/a	n/a	54
241.87	0	button press	n/a	n/a	n/a	n/a	n/a	54
247.31	4.83	NN	0.80	3	1	0	0	n/a
248.11	0	button press	n/a	n/a	n/a	n/a	n/a	50
249.84	0	button press	n/a	n/a	n/a	n/a	n/a	54
250.14	0	button press	n/a	n/a	n/a	n/a	n/a	54
255.90	4.83	NN	1.25	2	1	0	0	n/a
257.15	0	button press	n/a	n/a	n/a	n/a	n/a	50
258.83	0	button press	n/a	n/a	n/a	n/a	n/a	55
259.33	0	button press	n/a	n/a	n/a	n/a	n/a	55
263.21	4.83	missed_trial	n/a	n/a	1	3	n/a	n/a
265.06	0	button press	n/a	n/a	n/a	n/a	n/a	50
269.89	4.83	YY	0.72	6	1	1	1	n/a
270.60	0	button press	n/a	n/a	n/a	n/a	n/a	51
271.58	0	button press	n/a	n/a	n/a	n/a	n/a	54
271.83	0	button press	n/a	n/a	n/a	n/a	n/a	54
272.03	0	button press	n/a	n/a	n/a	n/a	n/a	54
272.37	0	button press	n/a	n/a	n/a	n/a	n/a	54
275.81	4.83	YN	1.25	1	1	3	0	n/a
277.06	0	button press	n/a	n/a	n/a	n/a	n/a	50
278.61	0	button press	n/a	n/a	n/a	n/a	n/a	55
282.72	4.83	NN	1.45	3	1	0	0	n/a
284.17	0	button press	n/a	n/a	n/a	n/a	n/a	50
284.97	0	button press	n/a	n/a	n/a	n/a	n/a	55
285.22	0	button press	n/a	n/a	n/a	n/a	n/a	55
285.45	0	button press	n/a	n/a	n/a	n/a	n/a	55
286.15	0	button press	n/a	n/a	n/a	n/a	n/a	54
289.21	4.83	YY	0.67	6	1	1	1	n/a
289.88	0	button press	n/a	n/a	n/a	n/a	n/a	51
290.83	0	button press	n/a	n/a	n/a	n/a	n/a	54
291.18	0	button press	n/a	n/a	n/a	n/a	n/a	54
291.41	0	button press	n/a	n/a	n/a	n/a	n/a	54
295.19	4.83	YN	1.38	1	1	3	0	n/a
296.57	0	button press	n/a	n/a	n/a	n/a	n/a	50
297.87	0	button press	n/a	n/a	n/a	n/a	n/a	55
311.14	4.83	CC	0.88	6	0	1	1	n/a
312.02	0	button press	n/a	n/a	n/a	n/a	n/a	50
313.12	0	button press	n/a	n/a	n/a	n/a	n/a	54
313.39	0	button press	n/a	n/a	n/a	n/a	n/a	54
317.60	4.83	AA	0.93	3	0	3	3	n/a
318.53	0	button press	n/a	n/a	n/a	n/a	n/a	51
320.21	0	button press	n/a	n/a	n/a	n/a	n/a	54
324.17	4.83	AC	1.33	2	0	3	1	n/a
325.50	0	button press	n/a	n/a	n/a	n/a	n/a	50
326.60	0	button press	n/a	n/a	n/a	n/a	n/a	55
332.50	4.83	AC	0.77	5	0	3	1	n/a
333.26	0	button press	n/a	n/a	n/a	n/a	n/a	50
334.66	0	button press	n/a	n/a	n/a	n/a	n/a	54
335.13	0	button press	n/a	n/a	n/a	n/a	n/a	54
340.04	4.83	AA	0.77	6	0	3	3	n/a
340.80	0	button press	n/a	n/a	n/a	n/a	n/a	51
341.82	0	button press	n/a	n/a	n/a	n/a	n/a	54
342.14	0	button press	n/a	n/a	n/a	n/a	n/a	54
342.40	0	button press	n/a	n/a	n/a	n/a	n/a	54
347.93	4.83	AA	0.73	6	0	3	3	n/a
348.66	0	button press	n/a	n/a	n/a	n/a	n/a	51
349.84	0	button press	n/a	n/a	n/a	n/a	n/a	54
350.18	0	button press	n/a	n/a	n/a	n/a	n/a	54
350.49	0	button press	n/a	n/a	n/a	n/a	n/a	54
355.19	4.83	AC	1.28	1	0	3	1	n/a
356.47	0	button press	n/a	n/a	n/a	n/a	n/a	50
357.92	0	button press	n/a	n/a	n/a	n/a	n/a	54
358.82	0	button press	n/a	n/a	n/a	n/a	n/a	55
361.98	4.83	AA	1.00	4	0	3	3	n/a
362.98	0	button press	n/a	n/a	n/a	n/a	n/a	51
370.45	4.83	AA	1.10	3	0	3	3	n/a
371.55	0	button press	n/a	n/a	n/a	n/a	n/a	51
372.75	0	button press	n/a	n/a	n/a	n/a	n/a	55
373.10	0	button press	n/a	n/a	n/a	n/a	n/a	55
373.58	0	button press	n/a	n/a	n/a	n/a	n/a	55
374.10	0	button press	n/a	n/a	n/a	n/a	n/a	54
378.98	4.83	CC	0.88	3	0	1	1	n/a
379.86	0	button press	n/a	n/a	n/a	n/a	n/a	50
381.24	0	button press	n/a	n/a	n/a	n/a	n/a	54
385.54	4.83	AA	1.31	1	0	3	3	n/a
386.85	0	button press	n/a	n/a	n/a	n/a	n/a	51
387.87	0	button press	n/a	n/a	n/a	n/a	n/a	55
388.13	0	button press	n/a	n/a	n/a	n/a	n/a	55
391.94	4.83	AC	1.18	2	0	3	1	n/a
393.13	0	button press	n/a	n/a	n/a	n/a	n/a	50
394.03	0	button press	n/a	n/a	n/a	n/a	n/a	55
394.29	0	button press	n/a	n/a	n/a	n/a	n/a	55
394.52	0	button press	n/a	n/a	n/a	n/a	n/a	55
398.79	4.83	CC	1.25	2	0	1	1	n/a
400.03	0	button press	n/a	n/a	n/a	n/a	n/a	50
401.37	0	button press	n/a	n/a	n/a	n/a	n/a	54
402.03	0	button press	n/a	n/a	n/a	n/a	n/a	55
407.06	4.83	AC	1.35	2	0	3	1	n/a
408.41	0	button press	n/a	n/a	n/a	n/a	n/a	50
409.36	0	button press	n/a	n/a	n/a	n/a	n/a	55
409.62	0	button press	n/a	n/a	n/a	n/a	n/a	55
409.92	0	button press	n/a	n/a	n/a	n/a	n/a	55
413.25	4.83	CC	0.72	6	0	1	1	n/a
413.97	0	button press	n/a	n/a	n/a	n/a	n/a	50
415.08	0	button press	n/a	n/a	n/a	n/a	n/a	54
415.53	0	button press	n/a	n/a	n/a	n/a	n/a	54
415.97	0	button press	n/a	n/a	n/a	n/a	n/a	55
416.23	0	button press	n/a	n/a	n/a	n/a	n/a	54
419.96	4.83	CC	0.90	6	0	1	1	n/a
420.86	0	button press	n/a	n/a	n/a	n/a	n/a	50
422.11	0	button press	n/a	n/a	n/a	n/a	n/a	54
422.38	0	button press	n/a	n/a	n/a	n/a	n/a	54
422.61	0	button press	n/a	n/a	n/a	n/a	n/a	54
422.97	0	button press	n/a	n/a	n/a	n/a	n/a	54
427.07	4.83	AA	0.85	4	0	3	3	n/a
427.92	0	button press	n/a	n/a	n/a	n/a	n/a	51
433.83	4.83	AC	1.17	6	0	3	1	n/a
434.99	0	button press	n/a	n/a	n/a	n/a	n/a	50
435.89	0	button press	n/a	n/a	n/a	n/a	n/a	54
436.16	0	button press	n/a	n/a	n/a	n/a	n/a	54
436.39	0	button press	n/a	n/a	n/a	n/a	n/a	54
436.63	0	button press	n/a	n/a	n/a	n/a	n/a	54
442.57	4.83	CA	1.33	3	0	1	3	n/a
443.90	0	button press	n/a	n/a	n/a	n/a	n/a	51
445.27	0	button press	n/a	n/a	n/a	n/a	n/a	55
446.61	0	button press	n/a	n/a	n/a	n/a	n/a	55
448.31	4.83	AA	0.92	3	0	3	3	n/a
449.23	0	button press	n/a	n/a	n/a	n/a	n/a	51
450.19	0	button press	n/a	n/a	n/a	n/a	n/a	55
450.46	0	button press	n/a	n/a	n/a	n/a	n/a	55
450.71	0	button press	n/a	n/a	n/a	n/a	n/a	55
451.11	0	button press	n/a	n/a	n/a	n/a	n/a	54
456.10	4.83	AA	0.73	5	0	3	3	n/a
456.84	0	button press	n/a	n/a	n/a	n/a	n/a	51
459.00	0	button press	n/a	n/a	n/a	n/a	n/a	55
459.22	0	button press	n/a	n/a	n/a	n/a	n/a	54
463.49	4.83	missed_trial	n/a	n/a	0	1	n/a	n/a
465.13	0	button press	n/a	n/a	n/a	n/a	n/a	51
469.70	4.83	CC	0.93	1	0	1	1	n/a
470.64	0	button press	n/a	n/a	n/a	n/a	n/a	50
471.55	0	button press	n/a	n/a	n/a	n/a	n/a	55
471.83	0	button press	n/a	n/a	n/a	n/a	n/a	55
472.03	0	button press	n/a	n/a	n/a	n/a	n/a	55
477.98	4.83	CC	0.72	6	0	1	1	n/a
478.69	0	button press	n/a	n/a	n/a	n/a	n/a	50
480.01	0	button press	n/a	n/a	n/a	n/a	n/a	54
480.36	0	button press	n/a	n/a	n/a	n/a	n/a	54
480.79	0	button press	n/a	n/a	n/a	n/a	n/a	54
480.99	0	button press	n/a	n/a	n/a	n/a	n/a	54
486.48	4.83	AC	0.68	5	0	3	1	n/a
487.17	0	button press	n/a	n/a	n/a	n/a	n/a	50
488.38	0	button press	n/a	n/a	n/a	n/a	n/a	54
493.24	4.83	AC	1.25	2	0	3	1	n/a
494.49	0	button press	n/a	n/a	n/a	n/a	n/a	50
496.32	0	button press	n/a	n/a	n/a	n/a	n/a	54
496.61	0	button press	n/a	n/a	n/a	n/a	n/a	55
500.14	4.83	CC	0.63	6	0	1	1	n/a
500.77	0	button press	n/a	n/a	n/a	n/a	n/a	50
501.98	0	button press	n/a	n/a	n/a	n/a	n/a	54
502.28	0	button press	n/a	n/a	n/a	n/a	n/a	54
502.52	0	button press	n/a	n/a	n/a	n/a	n/a	54
502.72	0	button press	n/a	n/a	n/a	n/a	n/a	54
502.97	0	button press	n/a	n/a	n/a	n/a	n/a	54
503.23	0	button press	n/a	n/a	n/a	n/a	n/a	54
507.61	4.83	missed_trial	n/a	n/a	0	1	n/a	n/a
509.23	0	button press	n/a	n/a	n/a	n/a	n/a	51
513.29	4.83	AA	0.78	3	0	3	3	n/a
514.07	0	button press	n/a	n/a	n/a	n/a	n/a	51
515.62	0	button press	n/a	n/a	n/a	n/a	n/a	54
521.11	4.83	CC	1.40	2	0	1	1	n/a
522.51	0	button press	n/a	n/a	n/a	n/a	n/a	50
523.21	0	button press	n/a	n/a	n/a	n/a	n/a	54
527.45	4.83	CC	0.82	5	0	1	1	n/a
528.27	0	button press	n/a	n/a	n/a	n/a	n/a	50
529.97	0	button press	n/a	n/a	n/a	n/a	n/a	55
535.09	4.83	CA	0.95	3	0	1	3	n/a
536.04	0	button press	n/a	n/a	n/a	n/a	n/a	51
537.34	0	button press	n/a	n/a	n/a	n/a	n/a	54
537.92	0	button press	n/a	n/a	n/a	n/a	n/a	54
541.84	4.83	CC	1.30	6	0	1	1	n/a
543.14	0	button press	n/a	n/a	n/a	n/a	n/a	50
544.07	0	button press	n/a	n/a	n/a	n/a	n/a	54
544.33	0	button press	n/a	n/a	n/a	n/a	n/a	54
544.55	0	button press	n/a	n/a	n/a	n/a	n/a	54
544.73	0	button press	n/a	n/a	n/a	n/a	n/a	54
549.68	4.83	AC	0.85	4	0	3	1	n/a
550.53	0	button press	n/a	n/a	n/a	n/a	n/a	50
552.16	0	button press	n/a	n/a	n/a	n/a	n/a	55
555.94	4.83	CA	1.00	2	0	1	3	n/a
556.94	0	button press	n/a	n/a	n/a	n/a	n/a	51
558.48	0	button press	n/a	n/a	n/a	n/a	n/a	54
563.31	4.83	CC	0.72	5	0	1	1	n/a
564.03	0	button press	n/a	n/a	n/a	n/a	n/a	50
565.48	0	button press	n/a	n/a	n/a	n/a	n/a	54
566.62	0	button press	n/a	n/a	n/a	n/a	n/a	54
571.37	4.83	CC	0.75	6	0	1	1	n/a
572.12	0	button press	n/a	n/a	n/a	n/a	n/a	50
573.28	0	button press	n/a	n/a	n/a	n/a	n/a	54
573.55	0	button press	n/a	n/a	n/a	n/a	n/a	54
573.80	0	button press	n/a	n/a	n/a	n/a	n/a	54
573.97	0	button press	n/a	n/a	n/a	n/a	n/a	54
578.91	4.83	CC	0.75	6	0	1	1	n/a
579.66	0	button press	n/a	n/a	n/a	n/a	n/a	50
580.94	0	button press	n/a	n/a	n/a	n/a	n/a	54
581.26	0	button press	n/a	n/a	n/a	n/a	n/a	54
581.46	0	button press	n/a	n/a	n/a	n/a	n/a	54
581.84	0	button press	n/a	n/a	n/a	n/a	n/a	54
587.05	4.83	AC	1.08	4	0	3	1	n/a
588.13	0	button press	n/a	n/a	n/a	n/a	n/a	50
589.17	0	button press	n/a	n/a	n/a	n/a	n/a	55
589.56	0	button press	n/a	n/a	n/a	n/a	n/a	54
590.06	0	button press	n/a	n/a	n/a	n/a	n/a	54
590.35	0	button press	n/a	n/a	n/a	n/a	n/a	54
593.26	4.83	CA	0.92	1	0	1	3	n/a
594.18	0	button press	n/a	n/a	n/a	n/a	n/a	51
595.89	0	button press	n/a	n/a	n/a	n/a	n/a	55
