onset 	 duration 	 trial_type 	 response_time 	 confidence 	 detection 	 stimulus 	 response 	 key_id 
10.03 	 4.83 	 NN 	 0.76 	 1 	 1 	 0 	 0 	 n/a 
10.79 	 0 	 button press 	 n/a 	 n/a 	 n/a 	 n/a 	 n/a  	 51 
11.88 	 0 	 button press 	 n/a 	 n/a 	 n/a 	 n/a 	 n/a  	 54 
12.17 	 0 	 button press 	 n/a 	 n/a 	 n/a 	 n/a 	 n/a  	 54 
12.40 	 0 	 button press 	 n/a 	 n/a 	 n/a 	 n/a 	 n/a  	 54 
12.62 	 0 	 button press 	 n/a 	 n/a 	 n/a 	 n/a 	 n/a  	 54 
12.82 	 0 	 button press 	 n/a 	 n/a 	 n/a 	 n/a 	 n/a  	 54 
18.59 	 4.83 	 NN 	 0.87 	 3 	 1 	 0 	 0 	 n/a 
19.46 	 0 	 button press 	 n/a 	 n/a 	 n/a 	 n/a 	 n/a  	 51 
20.52 	 0 	 button press 	 n/a 	 n/a 	 n/a 	 n/a 	 n/a  	 55 
20.81 	 0 	 button press 	 n/a 	 n/a 	 n/a 	 n/a 	 n/a  	 55 
21.37 	 0 	 button press 	 n/a 	 n/a 	 n/a 	 n/a 	 n/a  	 55 
22.02 	 0 	 button press 	 n/a 	 n/a 	 n/a 	 n/a 	 n/a  	 54 
25.59 	 4.83 	 YY 	 0.80 	 5 	 1 	 1 	 1 	 n/a 
26.38 	 0 	 button press 	 n/a 	 n/a 	 n/a 	 n/a 	 n/a  	 50 
27.48 	 0 	 button press 	 n/a 	 n/a 	 n/a 	 n/a 	 n/a  	 55 
31.21 	 4.83 	 NN 	 0.75 	 3 	 1 	 0 	 0 	 n/a 
31.96 	 0 	 button press 	 n/a 	 n/a 	 n/a 	 n/a 	 n/a  	 51 
33.74 	 0 	 button press 	 n/a 	 n/a 	 n/a 	 n/a 	 n/a  	 54 
37.17 	 4.83 	 NY 	 0.75 	 4 	 1 	 0 	 1 	 n/a 
37.92 	 0 	 button press 	 n/a 	 n/a 	 n/a 	 n/a 	 n/a  	 50 
39.29 	 0 	 button press 	 n/a 	 n/a 	 n/a 	 n/a 	 n/a  	 55 
39.55 	 0 	 button press 	 n/a 	 n/a 	 n/a 	 n/a 	 n/a  	 55 
45.56 	 4.83 	 YY 	 0.73 	 4 	 1 	 3 	 1 	 n/a 
46.30 	 0 	 button press 	 n/a 	 n/a 	 n/a 	 n/a 	 n/a  	 50 
47.66 	 0 	 button press 	 n/a 	 n/a 	 n/a 	 n/a 	 n/a  	 55 
47.98 	 0 	 button press 	 n/a 	 n/a 	 n/a 	 n/a 	 n/a  	 55 
48.23 	 0 	 button press 	 n/a 	 n/a 	 n/a 	 n/a 	 n/a  	 55 
51.80 	 4.83 	 YY 	 0.67 	 6 	 1 	 1 	 1 	 n/a 
52.47 	 0 	 button press 	 n/a 	 n/a 	 n/a 	 n/a 	 n/a  	 50 
53.14 	 0 	 button press 	 n/a 	 n/a 	 n/a 	 n/a 	 n/a  	 55 
53.37 	 0 	 button press 	 n/a 	 n/a 	 n/a 	 n/a 	 n/a  	 55 
53.57 	 0 	 button press 	 n/a 	 n/a 	 n/a 	 n/a 	 n/a  	 55 
53.85 	 0 	 button press 	 n/a 	 n/a 	 n/a 	 n/a 	 n/a  	 55 
58.96 	 4.83 	 YY 	 1.08 	 1 	 1 	 1 	 1 	 n/a 
60.05 	 0 	 button press 	 n/a 	 n/a 	 n/a 	 n/a 	 n/a  	 50 
60.71 	 0 	 button press 	 n/a 	 n/a 	 n/a 	 n/a 	 n/a  	 50 
61.29 	 0 	 button press 	 n/a 	 n/a 	 n/a 	 n/a 	 n/a  	 54 
61.56 	 0 	 button press 	 n/a 	 n/a 	 n/a 	 n/a 	 n/a  	 54 
61.83 	 0 	 button press 	 n/a 	 n/a 	 n/a 	 n/a 	 n/a  	 54 
64.79 	 4.83 	 YY 	 0.60 	 3 	 1 	 1 	 1 	 n/a 
65.39 	 0 	 button press 	 n/a 	 n/a 	 n/a 	 n/a 	 n/a  	 50 
66.72 	 0 	 button press 	 n/a 	 n/a 	 n/a 	 n/a 	 n/a  	 55 
67.01 	 0 	 button press 	 n/a 	 n/a 	 n/a 	 n/a 	 n/a  	 55 
73.78 	 4.83 	 YY 	 0.93 	 3 	 1 	 1 	 1 	 n/a 
74.71 	 0 	 button press 	 n/a 	 n/a 	 n/a 	 n/a 	 n/a  	 50 
76.26 	 0 	 button press 	 n/a 	 n/a 	 n/a 	 n/a 	 n/a  	 54 
81.89 	 4.83 	 YY 	 1.20 	 1 	 1 	 3 	 1 	 n/a 
83.09 	 0 	 button press 	 n/a 	 n/a 	 n/a 	 n/a 	 n/a  	 50 
84.23 	 0 	 button press 	 n/a 	 n/a 	 n/a 	 n/a 	 n/a  	 54 
84.59 	 0 	 button press 	 n/a 	 n/a 	 n/a 	 n/a 	 n/a  	 54 
89.93 	 4.83 	 YY 	 0.80 	 2 	 1 	 3 	 1 	 n/a 
90.73 	 0 	 button press 	 n/a 	 n/a 	 n/a 	 n/a 	 n/a  	 50 
91.86 	 0 	 button press 	 n/a 	 n/a 	 n/a 	 n/a 	 n/a  	 54 
93.17 	 0 	 button press 	 n/a 	 n/a 	 n/a 	 n/a 	 n/a  	 55 
96.02 	 4.83 	 YN 	 0.98 	 5 	 1 	 3 	 0 	 n/a 
97.00 	 0 	 button press 	 n/a 	 n/a 	 n/a 	 n/a 	 n/a  	 51 
97.70 	 0 	 button press 	 n/a 	 n/a 	 n/a 	 n/a 	 n/a  	 55 
98.45 	 0 	 button press 	 n/a 	 n/a 	 n/a 	 n/a 	 n/a  	 54 
102.20 	 4.83 	 NN 	 0.73 	 4 	 1 	 0 	 0 	 n/a 
102.93 	 0 	 button press 	 n/a 	 n/a 	 n/a 	 n/a 	 n/a  	 51 
104.54 	 0 	 button press 	 n/a 	 n/a 	 n/a 	 n/a 	 n/a  	 54 
104.79 	 0 	 button press 	 n/a 	 n/a 	 n/a 	 n/a 	 n/a  	 54 
109.54 	 4.83 	 YY 	 0.77 	 4 	 1 	 1 	 1 	 n/a 
110.30 	 0 	 button press 	 n/a 	 n/a 	 n/a 	 n/a 	 n/a  	 50 
111.50 	 0 	 button press 	 n/a 	 n/a 	 n/a 	 n/a 	 n/a  	 55 
111.84 	 0 	 button press 	 n/a 	 n/a 	 n/a 	 n/a 	 n/a  	 55 
112.30 	 0 	 button press 	 n/a 	 n/a 	 n/a 	 n/a 	 n/a  	 55 
115.25 	 4.83 	 NN 	 0.85 	 1 	 1 	 0 	 0 	 n/a 
116.10 	 0 	 button press 	 n/a 	 n/a 	 n/a 	 n/a 	 n/a  	 51 
116.95 	 0 	 button press 	 n/a 	 n/a 	 n/a 	 n/a 	 n/a  	 54 
117.20 	 0 	 button press 	 n/a 	 n/a 	 n/a 	 n/a 	 n/a  	 54 
122.96 	 4.83 	 YY 	 0.90 	 3 	 1 	 3 	 1 	 n/a 
123.86 	 0 	 button press 	 n/a 	 n/a 	 n/a 	 n/a 	 n/a  	 50 
125.54 	 0 	 button press 	 n/a 	 n/a 	 n/a 	 n/a 	 n/a  	 54 
130.55 	 4.83 	 YY 	 0.74 	 1 	 1 	 3 	 1 	 n/a 
131.28 	 0 	 button press 	 n/a 	 n/a 	 n/a 	 n/a 	 n/a  	 50 
131.81 	 0 	 button press 	 n/a 	 n/a 	 n/a 	 n/a 	 n/a  	 55 
132.33 	 0 	 button press 	 n/a 	 n/a 	 n/a 	 n/a 	 n/a  	 54 
132.63 	 0 	 button press 	 n/a 	 n/a 	 n/a 	 n/a 	 n/a  	 54 
132.84 	 0 	 button press 	 n/a 	 n/a 	 n/a 	 n/a 	 n/a  	 54 
137.16 	 4.83 	 NY 	 1.13 	 2 	 1 	 0 	 1 	 n/a 
138.29 	 0 	 button press 	 n/a 	 n/a 	 n/a 	 n/a 	 n/a  	 50 
139.64 	 0 	 button press 	 n/a 	 n/a 	 n/a 	 n/a 	 n/a  	 54 
140.20 	 0 	 button press 	 n/a 	 n/a 	 n/a 	 n/a 	 n/a  	 55 
144.08 	 4.83 	 YY 	 1.02 	 6 	 1 	 1 	 1 	 n/a 
145.10 	 0 	 button press 	 n/a 	 n/a 	 n/a 	 n/a 	 n/a  	 50 
146.36 	 0 	 button press 	 n/a 	 n/a 	 n/a 	 n/a 	 n/a  	 54 
146.90 	 0 	 button press 	 n/a 	 n/a 	 n/a 	 n/a 	 n/a  	 55 
147.13 	 0 	 button press 	 n/a 	 n/a 	 n/a 	 n/a 	 n/a  	 55 
150.78 	 4.83 	 NY 	 1.18 	 1 	 1 	 0 	 1 	 n/a 
151.96 	 0 	 button press 	 n/a 	 n/a 	 n/a 	 n/a 	 n/a  	 50 
152.72 	 0 	 button press 	 n/a 	 n/a 	 n/a 	 n/a 	 n/a  	 55 
153.10 	 0 	 button press 	 n/a 	 n/a 	 n/a 	 n/a 	 n/a  	 54 
153.35 	 0 	 button press 	 n/a 	 n/a 	 n/a 	 n/a 	 n/a  	 54 
153.54 	 0 	 button press 	 n/a 	 n/a 	 n/a 	 n/a 	 n/a  	 54 
153.91 	 0 	 button press 	 n/a 	 n/a 	 n/a 	 n/a 	 n/a  	 54 
154.14 	 0 	 button press 	 n/a 	 n/a 	 n/a 	 n/a 	 n/a  	 54 
154.44 	 0 	 button press 	 n/a 	 n/a 	 n/a 	 n/a 	 n/a  	 54 
156.48 	 4.83 	 NN 	 1.17 	 2 	 1 	 0 	 0 	 n/a 
157.65 	 0 	 button press 	 n/a 	 n/a 	 n/a 	 n/a 	 n/a  	 51 
159.20 	 0 	 button press 	 n/a 	 n/a 	 n/a 	 n/a 	 n/a  	 55 
164.38 	 4.83 	 YY 	 0.73 	 6 	 1 	 1 	 1 	 n/a 
165.11 	 0 	 button press 	 n/a 	 n/a 	 n/a 	 n/a 	 n/a  	 50 
166.51 	 0 	 button press 	 n/a 	 n/a 	 n/a 	 n/a 	 n/a  	 55 
166.79 	 0 	 button press 	 n/a 	 n/a 	 n/a 	 n/a 	 n/a  	 55 
170.85 	 4.83 	 NN 	 0.73 	 3 	 1 	 0 	 0 	 n/a 
171.59 	 0 	 button press 	 n/a 	 n/a 	 n/a 	 n/a 	 n/a  	 51 
173.10 	 0 	 button press 	 n/a 	 n/a 	 n/a 	 n/a 	 n/a  	 54 
179.32 	 4.83 	 YY 	 0.67 	 4 	 1 	 3 	 1 	 n/a 
179.99 	 0 	 button press 	 n/a 	 n/a 	 n/a 	 n/a 	 n/a  	 50 
181.59 	 0 	 button press 	 n/a 	 n/a 	 n/a 	 n/a 	 n/a  	 54 
182.29 	 0 	 button press 	 n/a 	 n/a 	 n/a 	 n/a 	 n/a  	 55 
182.50 	 0 	 button press 	 n/a 	 n/a 	 n/a 	 n/a 	 n/a  	 55 
185.00 	 4.83 	 NN 	 0.82 	 6 	 1 	 0 	 0 	 n/a 
185.82 	 0 	 button press 	 n/a 	 n/a 	 n/a 	 n/a 	 n/a  	 51 
186.82 	 0 	 button press 	 n/a 	 n/a 	 n/a 	 n/a 	 n/a  	 55 
187.33 	 0 	 button press 	 n/a 	 n/a 	 n/a 	 n/a 	 n/a  	 55 
191.16 	 4.83 	 NN 	 0.75 	 4 	 1 	 0 	 0 	 n/a 
191.91 	 0 	 button press 	 n/a 	 n/a 	 n/a 	 n/a 	 n/a  	 51 
193.51 	 0 	 button press 	 n/a 	 n/a 	 n/a 	 n/a 	 n/a  	 55 
194.12 	 0 	 button press 	 n/a 	 n/a 	 n/a 	 n/a 	 n/a  	 55 
200.17 	 4.83 	 YY 	 0.67 	 6 	 1 	 1 	 1 	 n/a 
200.83 	 0 	 button press 	 n/a 	 n/a 	 n/a 	 n/a 	 n/a  	 50 
202.05 	 0 	 button press 	 n/a 	 n/a 	 n/a 	 n/a 	 n/a  	 55 
202.25 	 0 	 button press 	 n/a 	 n/a 	 n/a 	 n/a 	 n/a  	 55 
202.43 	 0 	 button press 	 n/a 	 n/a 	 n/a 	 n/a 	 n/a  	 55 
202.60 	 0 	 button press 	 n/a 	 n/a 	 n/a 	 n/a 	 n/a  	 55 
202.76 	 0 	 button press 	 n/a 	 n/a 	 n/a 	 n/a 	 n/a  	 55 
206.73 	 4.83 	 NN 	 0.62 	 6 	 1 	 0 	 0 	 n/a 
207.34 	 0 	 button press 	 n/a 	 n/a 	 n/a 	 n/a 	 n/a  	 51 
208.29 	 0 	 button press 	 n/a 	 n/a 	 n/a 	 n/a 	 n/a  	 55 
208.59 	 0 	 button press 	 n/a 	 n/a 	 n/a 	 n/a 	 n/a  	 55 
208.81 	 0 	 button press 	 n/a 	 n/a 	 n/a 	 n/a 	 n/a  	 55 
213.10 	 4.83 	 YY 	 0.62 	 1 	 1 	 1 	 1 	 n/a 
213.72 	 0 	 button press 	 n/a 	 n/a 	 n/a 	 n/a 	 n/a  	 50 
215.12 	 0 	 button press 	 n/a 	 n/a 	 n/a 	 n/a 	 n/a  	 54 
215.45 	 0 	 button press 	 n/a 	 n/a 	 n/a 	 n/a 	 n/a  	 54 
221.53 	 4.83 	 YY 	 0.73 	 1 	 1 	 3 	 1 	 n/a 
222.26 	 0 	 button press 	 n/a 	 n/a 	 n/a 	 n/a 	 n/a  	 50 
223.11 	 0 	 button press 	 n/a 	 n/a 	 n/a 	 n/a 	 n/a  	 54 
223.47 	 0 	 button press 	 n/a 	 n/a 	 n/a 	 n/a 	 n/a  	 54 
223.71 	 0 	 button press 	 n/a 	 n/a 	 n/a 	 n/a 	 n/a  	 54 
223.89 	 0 	 button press 	 n/a 	 n/a 	 n/a 	 n/a 	 n/a  	 54 
224.07 	 0 	 button press 	 n/a 	 n/a 	 n/a 	 n/a 	 n/a  	 54 
227.80 	 4.83 	 NY 	 0.80 	 4 	 1 	 0 	 1 	 n/a 
228.60 	 0 	 button press 	 n/a 	 n/a 	 n/a 	 n/a 	 n/a  	 50 
230.22 	 0 	 button press 	 n/a 	 n/a 	 n/a 	 n/a 	 n/a  	 55 
230.42 	 0 	 button press 	 n/a 	 n/a 	 n/a 	 n/a 	 n/a  	 55 
230.58 	 0 	 button press 	 n/a 	 n/a 	 n/a 	 n/a 	 n/a  	 55 
236.71 	 4.83 	 NY 	 0.85 	 1 	 1 	 0 	 1 	 n/a 
237.56 	 0 	 button press 	 n/a 	 n/a 	 n/a 	 n/a 	 n/a  	 50 
238.77 	 0 	 button press 	 n/a 	 n/a 	 n/a 	 n/a 	 n/a  	 55 
239.44 	 0 	 button press 	 n/a 	 n/a 	 n/a 	 n/a 	 n/a  	 54 
239.69 	 0 	 button press 	 n/a 	 n/a 	 n/a 	 n/a 	 n/a  	 54 
239.90 	 0 	 button press 	 n/a 	 n/a 	 n/a 	 n/a 	 n/a  	 54 
240.17 	 0 	 button press 	 n/a 	 n/a 	 n/a 	 n/a 	 n/a  	 54 
245.32 	 4.83 	 NN 	 0.85 	 1 	 1 	 0 	 0 	 n/a 
246.17 	 0 	 button press 	 n/a 	 n/a 	 n/a 	 n/a 	 n/a  	 51 
247.03 	 0 	 button press 	 n/a 	 n/a 	 n/a 	 n/a 	 n/a  	 54 
247.30 	 0 	 button press 	 n/a 	 n/a 	 n/a 	 n/a 	 n/a  	 54 
247.60 	 0 	 button press 	 n/a 	 n/a 	 n/a 	 n/a 	 n/a  	 54 
248.68 	 0 	 button press 	 n/a 	 n/a 	 n/a 	 n/a 	 n/a  	 54 
252.23 	 4.83 	 NN 	 0.76 	 3 	 1 	 0 	 0 	 n/a 
252.99 	 0 	 button press 	 n/a 	 n/a 	 n/a 	 n/a 	 n/a  	 51 
253.57 	 0 	 button press 	 n/a 	 n/a 	 n/a 	 n/a 	 n/a  	 55 
254.17 	 0 	 button press 	 n/a 	 n/a 	 n/a 	 n/a 	 n/a  	 55 
254.57 	 0 	 button press 	 n/a 	 n/a 	 n/a 	 n/a 	 n/a  	 55 
260.60 	 4.83 	 NY 	 1.00 	 1 	 1 	 0 	 1 	 n/a 
261.60 	 0 	 button press 	 n/a 	 n/a 	 n/a 	 n/a 	 n/a  	 50 
262.48 	 0 	 button press 	 n/a 	 n/a 	 n/a 	 n/a 	 n/a  	 54 
262.81 	 0 	 button press 	 n/a 	 n/a 	 n/a 	 n/a 	 n/a  	 54 
263.05 	 0 	 button press 	 n/a 	 n/a 	 n/a 	 n/a 	 n/a  	 54 
263.81 	 0 	 button press 	 n/a 	 n/a 	 n/a 	 n/a 	 n/a  	 54 
266.47 	 4.83 	 YN 	 0.92 	 1 	 1 	 3 	 0 	 n/a 
267.39 	 0 	 button press 	 n/a 	 n/a 	 n/a 	 n/a 	 n/a  	 51 
268.42 	 0 	 button press 	 n/a 	 n/a 	 n/a 	 n/a 	 n/a  	 54 
268.72 	 0 	 button press 	 n/a 	 n/a 	 n/a 	 n/a 	 n/a  	 54 
268.97 	 0 	 button press 	 n/a 	 n/a 	 n/a 	 n/a 	 n/a  	 54 
269.17 	 0 	 button press 	 n/a 	 n/a 	 n/a 	 n/a 	 n/a  	 54 
273.70 	 4.83 	 NY 	 1.03 	 5 	 1 	 0 	 1 	 n/a 
274.73 	 0 	 button press 	 n/a 	 n/a 	 n/a 	 n/a 	 n/a  	 50 
275.90 	 0 	 button press 	 n/a 	 n/a 	 n/a 	 n/a 	 n/a  	 55 
276.43 	 0 	 button press 	 n/a 	 n/a 	 n/a 	 n/a 	 n/a  	 54 
280.26 	 4.83 	 NN 	 0.65 	 6 	 1 	 0 	 0 	 n/a 
280.91 	 0 	 button press 	 n/a 	 n/a 	 n/a 	 n/a 	 n/a  	 51 
281.61 	 0 	 button press 	 n/a 	 n/a 	 n/a 	 n/a 	 n/a  	 55 
281.94 	 0 	 button press 	 n/a 	 n/a 	 n/a 	 n/a 	 n/a  	 55 
282.22 	 0 	 button press 	 n/a 	 n/a 	 n/a 	 n/a 	 n/a  	 55 
282.47 	 0 	 button press 	 n/a 	 n/a 	 n/a 	 n/a 	 n/a  	 55 
282.77 	 0 	 button press 	 n/a 	 n/a 	 n/a 	 n/a 	 n/a  	 55 
282.97 	 0 	 button press 	 n/a 	 n/a 	 n/a 	 n/a 	 n/a  	 55 
288.55 	 4.83 	 YY 	 0.72 	 3 	 1 	 3 	 1 	 n/a 
289.26 	 0 	 button press 	 n/a 	 n/a 	 n/a 	 n/a 	 n/a  	 50 
290.20 	 0 	 button press 	 n/a 	 n/a 	 n/a 	 n/a 	 n/a  	 54 
290.73 	 0 	 button press 	 n/a 	 n/a 	 n/a 	 n/a 	 n/a  	 55 
304.50 	 4.83 	 AA 	 0.55 	 6 	 0 	 3 	 3 	 n/a 
305.05 	 0 	 button press 	 n/a 	 n/a 	 n/a 	 n/a 	 n/a  	 50 
306.38 	 0 	 button press 	 n/a 	 n/a 	 n/a 	 n/a 	 n/a  	 55 
306.56 	 0 	 button press 	 n/a 	 n/a 	 n/a 	 n/a 	 n/a  	 55 
306.78 	 0 	 button press 	 n/a 	 n/a 	 n/a 	 n/a 	 n/a  	 55 
306.95 	 0 	 button press 	 n/a 	 n/a 	 n/a 	 n/a 	 n/a  	 55 
310.42 	 4.83 	 CC 	 0.63 	 6 	 0 	 1 	 1 	 n/a 
311.06 	 0 	 button press 	 n/a 	 n/a 	 n/a 	 n/a 	 n/a  	 51 
318.55 	 4.83 	 AC 	 1.07 	 3 	 0 	 3 	 1 	 n/a 
319.61 	 0 	 button press 	 n/a 	 n/a 	 n/a 	 n/a 	 n/a  	 51 
320.98 	 0 	 button press 	 n/a 	 n/a 	 n/a 	 n/a 	 n/a  	 54 
321.46 	 0 	 button press 	 n/a 	 n/a 	 n/a 	 n/a 	 n/a  	 55 
322.54 	 0 	 button press 	 n/a 	 n/a 	 n/a 	 n/a 	 n/a  	 55 
325.06 	 4.83 	 AA 	 0.58 	 6 	 0 	 3 	 3 	 n/a 
325.64 	 0 	 button press 	 n/a 	 n/a 	 n/a 	 n/a 	 n/a  	 50 
327.14 	 0 	 button press 	 n/a 	 n/a 	 n/a 	 n/a 	 n/a  	 55 
331.65 	 4.83 	 AA 	 0.67 	 6 	 0 	 3 	 3 	 n/a 
332.31 	 0 	 button press 	 n/a 	 n/a 	 n/a 	 n/a 	 n/a  	 50 
333.45 	 0 	 button press 	 n/a 	 n/a 	 n/a 	 n/a 	 n/a  	 55 
339.41 	 4.83 	 CA 	 0.93 	 1 	 0 	 1 	 3 	 n/a 
340.34 	 0 	 button press 	 n/a 	 n/a 	 n/a 	 n/a 	 n/a  	 50 
341.41 	 0 	 button press 	 n/a 	 n/a 	 n/a 	 n/a 	 n/a  	 54 
341.61 	 0 	 button press 	 n/a 	 n/a 	 n/a 	 n/a 	 n/a  	 54 
341.81 	 0 	 button press 	 n/a 	 n/a 	 n/a 	 n/a 	 n/a  	 54 
343.53 	 0 	 button press 	 n/a 	 n/a 	 n/a 	 n/a 	 n/a  	 55 
348.05 	 4.83 	 AA 	 0.63 	 6 	 0 	 3 	 3 	 n/a 
348.68 	 0 	 button press 	 n/a 	 n/a 	 n/a 	 n/a 	 n/a  	 50 
351.01 	 0 	 button press 	 n/a 	 n/a 	 n/a 	 n/a 	 n/a  	 55 
356.99 	 4.83 	 AA 	 0.55 	 6 	 0 	 3 	 3 	 n/a 
357.54 	 0 	 button press 	 n/a 	 n/a 	 n/a 	 n/a 	 n/a  	 50 
359.22 	 0 	 button press 	 n/a 	 n/a 	 n/a 	 n/a 	 n/a  	 55 
359.68 	 0 	 button press 	 n/a 	 n/a 	 n/a 	 n/a 	 n/a  	 55 
364.18 	 4.83 	 AA 	 0.85 	 4 	 0 	 3 	 3 	 n/a 
365.03 	 0 	 button press 	 n/a 	 n/a 	 n/a 	 n/a 	 n/a  	 50 
366.76 	 0 	 button press 	 n/a 	 n/a 	 n/a 	 n/a 	 n/a  	 54 
367.62 	 0 	 button press 	 n/a 	 n/a 	 n/a 	 n/a 	 n/a  	 55 
372.22 	 4.83 	 AA 	 0.90 	 6 	 0 	 3 	 3 	 n/a 
373.12 	 0 	 button press 	 n/a 	 n/a 	 n/a 	 n/a 	 n/a  	 50 
374.20 	 0 	 button press 	 n/a 	 n/a 	 n/a 	 n/a 	 n/a  	 55 
380.04 	 4.83 	 AA 	 1.08 	 1 	 0 	 3 	 3 	 n/a 
381.12 	 0 	 button press 	 n/a 	 n/a 	 n/a 	 n/a 	 n/a  	 50 
382.46 	 0 	 button press 	 n/a 	 n/a 	 n/a 	 n/a 	 n/a  	 54 
382.71 	 0 	 button press 	 n/a 	 n/a 	 n/a 	 n/a 	 n/a  	 54 
382.89 	 0 	 button press 	 n/a 	 n/a 	 n/a 	 n/a 	 n/a  	 54 
383.12 	 0 	 button press 	 n/a 	 n/a 	 n/a 	 n/a 	 n/a  	 54 
386.40 	 4.83 	 AA 	 0.62 	 6 	 0 	 3 	 3 	 n/a 
387.02 	 0 	 button press 	 n/a 	 n/a 	 n/a 	 n/a 	 n/a  	 50 
387.77 	 0 	 button press 	 n/a 	 n/a 	 n/a 	 n/a 	 n/a  	 55 
388.00 	 0 	 button press 	 n/a 	 n/a 	 n/a 	 n/a 	 n/a  	 55 
388.27 	 0 	 button press 	 n/a 	 n/a 	 n/a 	 n/a 	 n/a  	 55 
393.96 	 4.83 	 CA 	 0.65 	 6 	 0 	 1 	 3 	 n/a 
394.61 	 0 	 button press 	 n/a 	 n/a 	 n/a 	 n/a 	 n/a  	 50 
396.12 	 0 	 button press 	 n/a 	 n/a 	 n/a 	 n/a 	 n/a  	 55 
396.32 	 0 	 button press 	 n/a 	 n/a 	 n/a 	 n/a 	 n/a  	 55 
396.52 	 0 	 button press 	 n/a 	 n/a 	 n/a 	 n/a 	 n/a  	 55 
396.91 	 0 	 button press 	 n/a 	 n/a 	 n/a 	 n/a 	 n/a  	 55 
397.07 	 0 	 button press 	 n/a 	 n/a 	 n/a 	 n/a 	 n/a  	 55 
400.72 	 4.83 	 CC 	 0.98 	 1 	 0 	 1 	 1 	 n/a 
401.70 	 0 	 button press 	 n/a 	 n/a 	 n/a 	 n/a 	 n/a  	 51 
402.39 	 0 	 button press 	 n/a 	 n/a 	 n/a 	 n/a 	 n/a  	 54 
407.71 	 4.83 	 AA 	 0.82 	 1 	 0 	 3 	 3 	 n/a 
408.53 	 0 	 button press 	 n/a 	 n/a 	 n/a 	 n/a 	 n/a  	 50 
409.31 	 0 	 button press 	 n/a 	 n/a 	 n/a 	 n/a 	 n/a  	 54 
409.71 	 0 	 button press 	 n/a 	 n/a 	 n/a 	 n/a 	 n/a  	 54 
410.04 	 0 	 button press 	 n/a 	 n/a 	 n/a 	 n/a 	 n/a  	 54 
416.57 	 4.83 	 CC 	 0.70 	 4 	 0 	 1 	 1 	 n/a 
417.27 	 0 	 button press 	 n/a 	 n/a 	 n/a 	 n/a 	 n/a  	 51 
418.72 	 0 	 button press 	 n/a 	 n/a 	 n/a 	 n/a 	 n/a  	 55 
419.17 	 0 	 button press 	 n/a 	 n/a 	 n/a 	 n/a 	 n/a  	 55 
419.32 	 0 	 button press 	 n/a 	 n/a 	 n/a 	 n/a 	 n/a  	 54 
419.56 	 0 	 button press 	 n/a 	 n/a 	 n/a 	 n/a 	 n/a  	 54 
425.47 	 4.83 	 CC 	 0.62 	 4 	 0 	 1 	 1 	 n/a 
426.09 	 0 	 button press 	 n/a 	 n/a 	 n/a 	 n/a 	 n/a  	 51 
427.59 	 0 	 button press 	 n/a 	 n/a 	 n/a 	 n/a 	 n/a  	 55 
427.97 	 0 	 button press 	 n/a 	 n/a 	 n/a 	 n/a 	 n/a  	 55 
428.26 	 0 	 button press 	 n/a 	 n/a 	 n/a 	 n/a 	 n/a  	 55 
432.96 	 4.83 	 CC 	 0.64 	 5 	 0 	 1 	 1 	 n/a 
433.60 	 0 	 button press 	 n/a 	 n/a 	 n/a 	 n/a 	 n/a  	 51 
434.91 	 0 	 button press 	 n/a 	 n/a 	 n/a 	 n/a 	 n/a  	 55 
435.18 	 0 	 button press 	 n/a 	 n/a 	 n/a 	 n/a 	 n/a  	 55 
435.46 	 0 	 button press 	 n/a 	 n/a 	 n/a 	 n/a 	 n/a  	 55 
440.59 	 4.83 	 CC 	 0.53 	 6 	 0 	 1 	 1 	 n/a 
441.12 	 0 	 button press 	 n/a 	 n/a 	 n/a 	 n/a 	 n/a  	 51 
446.92 	 4.83 	 CC 	 0.70 	 6 	 0 	 1 	 1 	 n/a 
447.61 	 0 	 button press 	 n/a 	 n/a 	 n/a 	 n/a 	 n/a  	 51 
449.03 	 0 	 button press 	 n/a 	 n/a 	 n/a 	 n/a 	 n/a  	 55 
449.26 	 0 	 button press 	 n/a 	 n/a 	 n/a 	 n/a 	 n/a  	 55 
449.45 	 0 	 button press 	 n/a 	 n/a 	 n/a 	 n/a 	 n/a  	 55 
452.71 	 4.83 	 CC 	 0.62 	 6 	 0 	 1 	 1 	 n/a 
453.32 	 0 	 button press 	 n/a 	 n/a 	 n/a 	 n/a 	 n/a  	 51 
454.61 	 0 	 button press 	 n/a 	 n/a 	 n/a 	 n/a 	 n/a  	 55 
454.84 	 0 	 button press 	 n/a 	 n/a 	 n/a 	 n/a 	 n/a  	 55 
461.78 	 4.83 	 CC 	 0.45 	 6 	 0 	 1 	 1 	 n/a 
462.23 	 0 	 button press 	 n/a 	 n/a 	 n/a 	 n/a 	 n/a  	 51 
463.81 	 0 	 button press 	 n/a 	 n/a 	 n/a 	 n/a 	 n/a  	 55 
470.87 	 4.83 	 AC 	 0.53 	 5 	 0 	 3 	 1 	 n/a 
471.40 	 0 	 button press 	 n/a 	 n/a 	 n/a 	 n/a 	 n/a  	 51 
476.85 	 4.83 	 AC 	 0.70 	 4 	 0 	 3 	 1 	 n/a 
477.55 	 0 	 button press 	 n/a 	 n/a 	 n/a 	 n/a 	 n/a  	 51 
478.90 	 0 	 button press 	 n/a 	 n/a 	 n/a 	 n/a 	 n/a  	 55 
479.28 	 0 	 button press 	 n/a 	 n/a 	 n/a 	 n/a 	 n/a  	 55 
482.78 	 4.83 	 AC 	 0.63 	 1 	 0 	 3 	 1 	 n/a 
483.41 	 0 	 button press 	 n/a 	 n/a 	 n/a 	 n/a 	 n/a  	 51 
484.44 	 0 	 button press 	 n/a 	 n/a 	 n/a 	 n/a 	 n/a  	 54 
490.66 	 4.83 	 AC 	 0.75 	 1 	 0 	 3 	 1 	 n/a 
491.41 	 0 	 button press 	 n/a 	 n/a 	 n/a 	 n/a 	 n/a  	 51 
493.13 	 0 	 button press 	 n/a 	 n/a 	 n/a 	 n/a 	 n/a  	 54 
498.21 	 4.83 	 CC 	 0.48 	 3 	 0 	 1 	 1 	 n/a 
498.69 	 0 	 button press 	 n/a 	 n/a 	 n/a 	 n/a 	 n/a  	 51 
500.64 	 0 	 button press 	 n/a 	 n/a 	 n/a 	 n/a 	 n/a  	 55 
501.09 	 0 	 button press 	 n/a 	 n/a 	 n/a 	 n/a 	 n/a  	 54 
501.32 	 0 	 button press 	 n/a 	 n/a 	 n/a 	 n/a 	 n/a  	 54 
504.08 	 4.83 	 CC 	 0.57 	 4 	 0 	 1 	 1 	 n/a 
504.65 	 0 	 button press 	 n/a 	 n/a 	 n/a 	 n/a 	 n/a  	 51 
505.98 	 0 	 button press 	 n/a 	 n/a 	 n/a 	 n/a 	 n/a  	 55 
506.22 	 0 	 button press 	 n/a 	 n/a 	 n/a 	 n/a 	 n/a  	 55 
506.45 	 0 	 button press 	 n/a 	 n/a 	 n/a 	 n/a 	 n/a  	 55 
512.14 	 4.83 	 CC 	 0.67 	 3 	 0 	 1 	 1 	 n/a 
512.81 	 0 	 button press 	 n/a 	 n/a 	 n/a 	 n/a 	 n/a  	 51 
514.34 	 0 	 button press 	 n/a 	 n/a 	 n/a 	 n/a 	 n/a  	 55 
514.82 	 0 	 button press 	 n/a 	 n/a 	 n/a 	 n/a 	 n/a  	 55 
515.17 	 0 	 button press 	 n/a 	 n/a 	 n/a 	 n/a 	 n/a  	 54 
515.37 	 0 	 button press 	 n/a 	 n/a 	 n/a 	 n/a 	 n/a  	 54 
515.90 	 0 	 button press 	 n/a 	 n/a 	 n/a 	 n/a 	 n/a  	 54 
518.53 	 4.83 	 AA 	 0.73 	 6 	 0 	 3 	 3 	 n/a 
519.27 	 0 	 button press 	 n/a 	 n/a 	 n/a 	 n/a 	 n/a  	 50 
520.48 	 0 	 button press 	 n/a 	 n/a 	 n/a 	 n/a 	 n/a  	 55 
527.06 	 4.83 	 AC 	 0.95 	 1 	 0 	 3 	 1 	 n/a 
528.01 	 0 	 button press 	 n/a 	 n/a 	 n/a 	 n/a 	 n/a  	 51 
528.66 	 0 	 button press 	 n/a 	 n/a 	 n/a 	 n/a 	 n/a  	 54 
528.92 	 0 	 button press 	 n/a 	 n/a 	 n/a 	 n/a 	 n/a  	 54 
529.32 	 0 	 button press 	 n/a 	 n/a 	 n/a 	 n/a 	 n/a  	 54 
529.50 	 0 	 button press 	 n/a 	 n/a 	 n/a 	 n/a 	 n/a  	 54 
529.69 	 0 	 button press 	 n/a 	 n/a 	 n/a 	 n/a 	 n/a  	 54 
530.12 	 0 	 button press 	 n/a 	 n/a 	 n/a 	 n/a 	 n/a  	 54 
533.80 	 4.83 	 AA 	 0.58 	 6 	 0 	 3 	 3 	 n/a 
534.38 	 0 	 button press 	 n/a 	 n/a 	 n/a 	 n/a 	 n/a  	 50 
535.41 	 0 	 button press 	 n/a 	 n/a 	 n/a 	 n/a 	 n/a  	 55 
535.63 	 0 	 button press 	 n/a 	 n/a 	 n/a 	 n/a 	 n/a  	 55 
542.09 	 4.83 	 AC 	 0.78 	 1 	 0 	 3 	 1 	 n/a 
542.87 	 0 	 button press 	 n/a 	 n/a 	 n/a 	 n/a 	 n/a  	 51 
543.69 	 0 	 button press 	 n/a 	 n/a 	 n/a 	 n/a 	 n/a  	 54 
543.90 	 0 	 button press 	 n/a 	 n/a 	 n/a 	 n/a 	 n/a  	 54 
549.71 	 4.83 	 AA 	 0.63 	 5 	 0 	 3 	 3 	 n/a 
550.35 	 0 	 button press 	 n/a 	 n/a 	 n/a 	 n/a 	 n/a  	 50 
551.69 	 0 	 button press 	 n/a 	 n/a 	 n/a 	 n/a 	 n/a  	 55 
551.98 	 0 	 button press 	 n/a 	 n/a 	 n/a 	 n/a 	 n/a  	 55 
552.96 	 0 	 button press 	 n/a 	 n/a 	 n/a 	 n/a 	 n/a  	 55 
556.19 	 4.83 	 CC 	 0.90 	 1 	 0 	 1 	 1 	 n/a 
557.09 	 0 	 button press 	 n/a 	 n/a 	 n/a 	 n/a 	 n/a  	 51 
559.05 	 0 	 button press 	 n/a 	 n/a 	 n/a 	 n/a 	 n/a  	 54 
563.08 	 4.83 	 CA 	 0.88 	 6 	 0 	 1 	 3 	 n/a 
563.97 	 0 	 button press 	 n/a 	 n/a 	 n/a 	 n/a 	 n/a  	 50 
565.38 	 0 	 button press 	 n/a 	 n/a 	 n/a 	 n/a 	 n/a  	 51 
565.56 	 0 	 button press 	 n/a 	 n/a 	 n/a 	 n/a 	 n/a  	 51 
565.75 	 0 	 button press 	 n/a 	 n/a 	 n/a 	 n/a 	 n/a  	 51 
566.01 	 0 	 button press 	 n/a 	 n/a 	 n/a 	 n/a 	 n/a  	 50 
566.18 	 0 	 button press 	 n/a 	 n/a 	 n/a 	 n/a 	 n/a  	 50 
566.36 	 0 	 button press 	 n/a 	 n/a 	 n/a 	 n/a 	 n/a  	 50 
571.87 	 4.83 	 CC 	 0.57 	 6 	 0 	 1 	 1 	 n/a 
572.44 	 0 	 button press 	 n/a 	 n/a 	 n/a 	 n/a 	 n/a  	 51 
573.74 	 0 	 button press 	 n/a 	 n/a 	 n/a 	 n/a 	 n/a  	 55 
574.17 	 0 	 button press 	 n/a 	 n/a 	 n/a 	 n/a 	 n/a  	 55 
574.35 	 0 	 button press 	 n/a 	 n/a 	 n/a 	 n/a 	 n/a  	 55 
574.54 	 0 	 button press 	 n/a 	 n/a 	 n/a 	 n/a 	 n/a  	 55 
579.76 	 4.83 	 CC 	 0.70 	 5 	 0 	 1 	 1 	 n/a 
580.46 	 0 	 button press 	 n/a 	 n/a 	 n/a 	 n/a 	 n/a  	 51 
581.68 	 0 	 button press 	 n/a 	 n/a 	 n/a 	 n/a 	 n/a  	 55 
582.19 	 0 	 button press 	 n/a 	 n/a 	 n/a 	 n/a 	 n/a  	 55 
586.54 	 4.83 	 CC 	 0.48 	 6 	 0 	 1 	 1 	 n/a 
587.02 	 0 	 button press 	 n/a 	 n/a 	 n/a 	 n/a 	 n/a  	 51 
588.09 	 0 	 button press 	 n/a 	 n/a 	 n/a 	 n/a 	 n/a  	 55 
588.42 	 0 	 button press 	 n/a 	 n/a 	 n/a 	 n/a 	 n/a  	 55 
588.65 	 0 	 button press 	 n/a 	 n/a 	 n/a 	 n/a 	 n/a  	 55 
588.92 	 0 	 button press 	 n/a 	 n/a 	 n/a 	 n/a 	 n/a  	 55 
589.15 	 0 	 button press 	 n/a 	 n/a 	 n/a 	 n/a 	 n/a  	 55 
589.42 	 0 	 button press 	 n/a 	 n/a 	 n/a 	 n/a 	 n/a  	 55 
594.26 	 4.83 	 CC 	 0.48 	 6 	 0 	 1 	 1 	 n/a 
594.74 	 0 	 button press 	 n/a 	 n/a 	 n/a 	 n/a 	 n/a  	 51 
596.31 	 0 	 button press 	 n/a 	 n/a 	 n/a 	 n/a 	 n/a  	 55 
