onset 	 duration 	 trial_type 	 response_time 	 confidence 	 detection 	 stimulus 	 response 	 key_id 
10.03 	 4.83 	 YN 	 0.93 	 6 	 1 	 3 	 0 	 n/a 
10.95 	 0 	 button press 	 n/a 	 n/a 	 n/a 	 n/a 	 n/a  	 50 
12.12 	 0 	 button press 	 n/a 	 n/a 	 n/a 	 n/a 	 n/a  	 54 
12.42 	 0 	 button press 	 n/a 	 n/a 	 n/a 	 n/a 	 n/a  	 54 
16.01 	 4.83 	 NN 	 1.07 	 6 	 1 	 0 	 0 	 n/a 
17.08 	 0 	 button press 	 n/a 	 n/a 	 n/a 	 n/a 	 n/a  	 50 
18.11 	 0 	 button press 	 n/a 	 n/a 	 n/a 	 n/a 	 n/a  	 54 
18.34 	 0 	 button press 	 n/a 	 n/a 	 n/a 	 n/a 	 n/a  	 54 
24.06 	 4.83 	 NN 	 1.37 	 1 	 1 	 0 	 0 	 n/a 
25.42 	 0 	 button press 	 n/a 	 n/a 	 n/a 	 n/a 	 n/a  	 50 
26.19 	 0 	 button press 	 n/a 	 n/a 	 n/a 	 n/a 	 n/a  	 55 
30.60 	 4.83 	 NY 	 0.82 	 5 	 1 	 0 	 1 	 n/a 
31.41 	 0 	 button press 	 n/a 	 n/a 	 n/a 	 n/a 	 n/a  	 51 
32.41 	 0 	 button press 	 n/a 	 n/a 	 n/a 	 n/a 	 n/a  	 54 
32.69 	 0 	 button press 	 n/a 	 n/a 	 n/a 	 n/a 	 n/a  	 54 
32.96 	 0 	 button press 	 n/a 	 n/a 	 n/a 	 n/a 	 n/a  	 54 
33.23 	 0 	 button press 	 n/a 	 n/a 	 n/a 	 n/a 	 n/a  	 54 
37.54 	 4.83 	 YY 	 1.15 	 1 	 1 	 1 	 1 	 n/a 
38.69 	 0 	 button press 	 n/a 	 n/a 	 n/a 	 n/a 	 n/a  	 51 
40.04 	 0 	 button press 	 n/a 	 n/a 	 n/a 	 n/a 	 n/a  	 55 
40.35 	 0 	 button press 	 n/a 	 n/a 	 n/a 	 n/a 	 n/a  	 55 
44.98 	 4.83 	 NN 	 1.08 	 5 	 1 	 0 	 0 	 n/a 
46.06 	 0 	 button press 	 n/a 	 n/a 	 n/a 	 n/a 	 n/a  	 50 
51.54 	 4.83 	 NN 	 0.90 	 3 	 1 	 0 	 0 	 n/a 
52.44 	 0 	 button press 	 n/a 	 n/a 	 n/a 	 n/a 	 n/a  	 50 
53.42 	 0 	 button press 	 n/a 	 n/a 	 n/a 	 n/a 	 n/a  	 55 
57.83 	 4.83 	 NY 	 0.78 	 4 	 1 	 0 	 1 	 n/a 
58.62 	 0 	 button press 	 n/a 	 n/a 	 n/a 	 n/a 	 n/a  	 51 
60.31 	 0 	 button press 	 n/a 	 n/a 	 n/a 	 n/a 	 n/a  	 55 
60.80 	 0 	 button press 	 n/a 	 n/a 	 n/a 	 n/a 	 n/a  	 55 
65.47 	 4.83 	 YY 	 1.08 	 6 	 1 	 3 	 1 	 n/a 
66.56 	 0 	 button press 	 n/a 	 n/a 	 n/a 	 n/a 	 n/a  	 51 
67.29 	 0 	 button press 	 n/a 	 n/a 	 n/a 	 n/a 	 n/a  	 54 
67.52 	 0 	 button press 	 n/a 	 n/a 	 n/a 	 n/a 	 n/a  	 54 
67.77 	 0 	 button press 	 n/a 	 n/a 	 n/a 	 n/a 	 n/a  	 54 
74.51 	 4.83 	 NN 	 1.15 	 3 	 1 	 0 	 0 	 n/a 
75.66 	 0 	 button press 	 n/a 	 n/a 	 n/a 	 n/a 	 n/a  	 50 
76.84 	 0 	 button press 	 n/a 	 n/a 	 n/a 	 n/a 	 n/a  	 55 
81.82 	 4.83 	 YY 	 0.90 	 4 	 1 	 3 	 1 	 n/a 
82.72 	 0 	 button press 	 n/a 	 n/a 	 n/a 	 n/a 	 n/a  	 51 
84.37 	 0 	 button press 	 n/a 	 n/a 	 n/a 	 n/a 	 n/a  	 55 
88.36 	 4.83 	 YN 	 0.90 	 2 	 1 	 1 	 0 	 n/a 
89.26 	 0 	 button press 	 n/a 	 n/a 	 n/a 	 n/a 	 n/a  	 50 
90.76 	 0 	 button press 	 n/a 	 n/a 	 n/a 	 n/a 	 n/a  	 55 
91.03 	 0 	 button press 	 n/a 	 n/a 	 n/a 	 n/a 	 n/a  	 55 
91.29 	 0 	 button press 	 n/a 	 n/a 	 n/a 	 n/a 	 n/a  	 55 
91.86 	 0 	 button press 	 n/a 	 n/a 	 n/a 	 n/a 	 n/a  	 55 
94.39 	 4.83 	 NY 	 1.07 	 4 	 1 	 0 	 1 	 n/a 
95.46 	 0 	 button press 	 n/a 	 n/a 	 n/a 	 n/a 	 n/a  	 51 
96.84 	 0 	 button press 	 n/a 	 n/a 	 n/a 	 n/a 	 n/a  	 55 
97.14 	 0 	 button press 	 n/a 	 n/a 	 n/a 	 n/a 	 n/a  	 55 
97.62 	 0 	 button press 	 n/a 	 n/a 	 n/a 	 n/a 	 n/a  	 54 
103.11 	 4.83 	 NN 	 1.00 	 1 	 1 	 0 	 0 	 n/a 
104.11 	 0 	 button press 	 n/a 	 n/a 	 n/a 	 n/a 	 n/a  	 50 
105.88 	 0 	 button press 	 n/a 	 n/a 	 n/a 	 n/a 	 n/a  	 55 
106.16 	 0 	 button press 	 n/a 	 n/a 	 n/a 	 n/a 	 n/a  	 55 
106.74 	 0 	 button press 	 n/a 	 n/a 	 n/a 	 n/a 	 n/a  	 55 
109.04 	 4.83 	 YY 	 0.88 	 6 	 1 	 1 	 1 	 n/a 
109.92 	 0 	 button press 	 n/a 	 n/a 	 n/a 	 n/a 	 n/a  	 51 
110.90 	 0 	 button press 	 n/a 	 n/a 	 n/a 	 n/a 	 n/a  	 54 
115.13 	 4.83 	 NN 	 0.90 	 3 	 1 	 0 	 0 	 n/a 
116.03 	 0 	 button press 	 n/a 	 n/a 	 n/a 	 n/a 	 n/a  	 50 
117.43 	 0 	 button press 	 n/a 	 n/a 	 n/a 	 n/a 	 n/a  	 55 
118.05 	 0 	 button press 	 n/a 	 n/a 	 n/a 	 n/a 	 n/a  	 55 
118.36 	 0 	 button press 	 n/a 	 n/a 	 n/a 	 n/a 	 n/a  	 55 
121.24 	 4.83 	 YY 	 0.72 	 6 	 1 	 1 	 1 	 n/a 
121.96 	 0 	 button press 	 n/a 	 n/a 	 n/a 	 n/a 	 n/a  	 51 
123.02 	 0 	 button press 	 n/a 	 n/a 	 n/a 	 n/a 	 n/a  	 54 
123.27 	 0 	 button press 	 n/a 	 n/a 	 n/a 	 n/a 	 n/a  	 54 
123.49 	 0 	 button press 	 n/a 	 n/a 	 n/a 	 n/a 	 n/a  	 54 
130.05 	 4.83 	 YY 	 1.03 	 6 	 1 	 3 	 1 	 n/a 
131.08 	 0 	 button press 	 n/a 	 n/a 	 n/a 	 n/a 	 n/a  	 51 
131.95 	 0 	 button press 	 n/a 	 n/a 	 n/a 	 n/a 	 n/a  	 54 
132.18 	 0 	 button press 	 n/a 	 n/a 	 n/a 	 n/a 	 n/a  	 54 
136.54 	 4.83 	 NN 	 0.78 	 1 	 1 	 0 	 0 	 n/a 
137.32 	 0 	 button press 	 n/a 	 n/a 	 n/a 	 n/a 	 n/a  	 50 
138.47 	 0 	 button press 	 n/a 	 n/a 	 n/a 	 n/a 	 n/a  	 55 
144.10 	 4.83 	 YY 	 0.70 	 6 	 1 	 1 	 1 	 n/a 
144.80 	 0 	 button press 	 n/a 	 n/a 	 n/a 	 n/a 	 n/a  	 51 
146.00 	 0 	 button press 	 n/a 	 n/a 	 n/a 	 n/a 	 n/a  	 54 
146.25 	 0 	 button press 	 n/a 	 n/a 	 n/a 	 n/a 	 n/a  	 54 
146.50 	 0 	 button press 	 n/a 	 n/a 	 n/a 	 n/a 	 n/a  	 54 
150.77 	 4.83 	 YY 	 0.90 	 6 	 1 	 1 	 1 	 n/a 
151.67 	 0 	 button press 	 n/a 	 n/a 	 n/a 	 n/a 	 n/a  	 51 
152.64 	 0 	 button press 	 n/a 	 n/a 	 n/a 	 n/a 	 n/a  	 54 
156.87 	 4.83 	 YN 	 0.77 	 2 	 1 	 3 	 0 	 n/a 
157.63 	 0 	 button press 	 n/a 	 n/a 	 n/a 	 n/a 	 n/a  	 50 
159.58 	 0 	 button press 	 n/a 	 n/a 	 n/a 	 n/a 	 n/a  	 55 
159.86 	 0 	 button press 	 n/a 	 n/a 	 n/a 	 n/a 	 n/a  	 55 
165.26 	 4.83 	 NN 	 1.17 	 1 	 1 	 0 	 0 	 n/a 
166.42 	 0 	 button press 	 n/a 	 n/a 	 n/a 	 n/a 	 n/a  	 50 
171.80 	 4.83 	 YY 	 0.78 	 6 	 1 	 1 	 1 	 n/a 
172.58 	 0 	 button press 	 n/a 	 n/a 	 n/a 	 n/a 	 n/a  	 51 
173.63 	 0 	 button press 	 n/a 	 n/a 	 n/a 	 n/a 	 n/a  	 54 
173.86 	 0 	 button press 	 n/a 	 n/a 	 n/a 	 n/a 	 n/a  	 54 
174.10 	 0 	 button press 	 n/a 	 n/a 	 n/a 	 n/a 	 n/a  	 54 
174.33 	 0 	 button press 	 n/a 	 n/a 	 n/a 	 n/a 	 n/a  	 54 
174.55 	 0 	 button press 	 n/a 	 n/a 	 n/a 	 n/a 	 n/a  	 54 
180.07 	 4.83 	 YY 	 1.00 	 3 	 1 	 3 	 1 	 n/a 
181.07 	 0 	 button press 	 n/a 	 n/a 	 n/a 	 n/a 	 n/a  	 51 
182.11 	 0 	 button press 	 n/a 	 n/a 	 n/a 	 n/a 	 n/a  	 54 
182.45 	 0 	 button press 	 n/a 	 n/a 	 n/a 	 n/a 	 n/a  	 54 
188.33 	 4.83 	 NN 	 1.03 	 3 	 1 	 0 	 0 	 n/a 
189.36 	 0 	 button press 	 n/a 	 n/a 	 n/a 	 n/a 	 n/a  	 50 
190.66 	 0 	 button press 	 n/a 	 n/a 	 n/a 	 n/a 	 n/a  	 54 
194.97 	 4.83 	 YY 	 0.88 	 6 	 1 	 3 	 1 	 n/a 
195.86 	 0 	 button press 	 n/a 	 n/a 	 n/a 	 n/a 	 n/a  	 51 
197.00 	 0 	 button press 	 n/a 	 n/a 	 n/a 	 n/a 	 n/a  	 54 
201.73 	 4.83 	 NN 	 0.73 	 2 	 1 	 0 	 0 	 n/a 
202.47 	 0 	 button press 	 n/a 	 n/a 	 n/a 	 n/a 	 n/a  	 50 
203.80 	 0 	 button press 	 n/a 	 n/a 	 n/a 	 n/a 	 n/a  	 55 
204.10 	 0 	 button press 	 n/a 	 n/a 	 n/a 	 n/a 	 n/a  	 55 
210.32 	 4.83 	 YN 	 1.17 	 5 	 1 	 3 	 0 	 n/a 
211.49 	 0 	 button press 	 n/a 	 n/a 	 n/a 	 n/a 	 n/a  	 50 
212.74 	 0 	 button press 	 n/a 	 n/a 	 n/a 	 n/a 	 n/a  	 55 
217.43 	 4.83 	 YY 	 0.95 	 6 	 1 	 1 	 1 	 n/a 
218.38 	 0 	 button press 	 n/a 	 n/a 	 n/a 	 n/a 	 n/a  	 51 
219.40 	 0 	 button press 	 n/a 	 n/a 	 n/a 	 n/a 	 n/a  	 54 
224.42 	 4.83 	 YY 	 1.18 	 6 	 1 	 3 	 1 	 n/a 
225.61 	 0 	 button press 	 n/a 	 n/a 	 n/a 	 n/a 	 n/a  	 51 
226.29 	 0 	 button press 	 n/a 	 n/a 	 n/a 	 n/a 	 n/a  	 54 
226.54 	 0 	 button press 	 n/a 	 n/a 	 n/a 	 n/a 	 n/a  	 54 
226.80 	 0 	 button press 	 n/a 	 n/a 	 n/a 	 n/a 	 n/a  	 54 
230.95 	 4.83 	 YY 	 1.05 	 1 	 1 	 1 	 1 	 n/a 
232.00 	 0 	 button press 	 n/a 	 n/a 	 n/a 	 n/a 	 n/a  	 51 
232.90 	 0 	 button press 	 n/a 	 n/a 	 n/a 	 n/a 	 n/a  	 55 
233.41 	 0 	 button press 	 n/a 	 n/a 	 n/a 	 n/a 	 n/a  	 55 
237.39 	 4.83 	 NN 	 0.93 	 3 	 1 	 0 	 0 	 n/a 
238.32 	 0 	 button press 	 n/a 	 n/a 	 n/a 	 n/a 	 n/a  	 50 
240.39 	 0 	 button press 	 n/a 	 n/a 	 n/a 	 n/a 	 n/a  	 55 
240.72 	 0 	 button press 	 n/a 	 n/a 	 n/a 	 n/a 	 n/a  	 55 
244.82 	 4.83 	 YY 	 0.68 	 6 	 1 	 1 	 1 	 n/a 
245.50 	 0 	 button press 	 n/a 	 n/a 	 n/a 	 n/a 	 n/a  	 51 
245.88 	 0 	 button press 	 n/a 	 n/a 	 n/a 	 n/a 	 n/a  	 54 
246.68 	 0 	 button press 	 n/a 	 n/a 	 n/a 	 n/a 	 n/a  	 54 
253.96 	 4.83 	 YY 	 0.97 	 6 	 1 	 3 	 1 	 n/a 
254.92 	 0 	 button press 	 n/a 	 n/a 	 n/a 	 n/a 	 n/a  	 51 
255.95 	 0 	 button press 	 n/a 	 n/a 	 n/a 	 n/a 	 n/a  	 54 
260.51 	 4.83 	 NY 	 0.85 	 3 	 1 	 0 	 1 	 n/a 
261.36 	 0 	 button press 	 n/a 	 n/a 	 n/a 	 n/a 	 n/a  	 51 
262.48 	 0 	 button press 	 n/a 	 n/a 	 n/a 	 n/a 	 n/a  	 55 
263.01 	 0 	 button press 	 n/a 	 n/a 	 n/a 	 n/a 	 n/a  	 54 
263.33 	 0 	 button press 	 n/a 	 n/a 	 n/a 	 n/a 	 n/a  	 54 
266.87 	 4.83 	 NN 	 0.87 	 5 	 1 	 0 	 0 	 n/a 
267.74 	 0 	 button press 	 n/a 	 n/a 	 n/a 	 n/a 	 n/a  	 50 
269.04 	 0 	 button press 	 n/a 	 n/a 	 n/a 	 n/a 	 n/a  	 54 
269.32 	 0 	 button press 	 n/a 	 n/a 	 n/a 	 n/a 	 n/a  	 54 
269.59 	 0 	 button press 	 n/a 	 n/a 	 n/a 	 n/a 	 n/a  	 54 
274.32 	 4.83 	 NN 	 1.07 	 6 	 1 	 0 	 0 	 n/a 
275.38 	 0 	 button press 	 n/a 	 n/a 	 n/a 	 n/a 	 n/a  	 50 
283.64 	 4.83 	 NN 	 1.00 	 4 	 1 	 0 	 0 	 n/a 
284.64 	 0 	 button press 	 n/a 	 n/a 	 n/a 	 n/a 	 n/a  	 50 
285.55 	 0 	 button press 	 n/a 	 n/a 	 n/a 	 n/a 	 n/a  	 55 
286.00 	 0 	 button press 	 n/a 	 n/a 	 n/a 	 n/a 	 n/a  	 55 
286.85 	 0 	 button press 	 n/a 	 n/a 	 n/a 	 n/a 	 n/a  	 54 
290.81 	 4.83 	 NY 	 0.98 	 3 	 1 	 0 	 1 	 n/a 
291.80 	 0 	 button press 	 n/a 	 n/a 	 n/a 	 n/a 	 n/a  	 51 
292.81 	 0 	 button press 	 n/a 	 n/a 	 n/a 	 n/a 	 n/a  	 55 
309.12 	 4.83 	 AC 	 1.32 	 1 	 0 	 3 	 1 	 n/a 
310.44 	 0 	 button press 	 n/a 	 n/a 	 n/a 	 n/a 	 n/a  	 50 
311.16 	 0 	 button press 	 n/a 	 n/a 	 n/a 	 n/a 	 n/a  	 55 
311.42 	 0 	 button press 	 n/a 	 n/a 	 n/a 	 n/a 	 n/a  	 55 
311.67 	 0 	 button press 	 n/a 	 n/a 	 n/a 	 n/a 	 n/a  	 55 
311.92 	 0 	 button press 	 n/a 	 n/a 	 n/a 	 n/a 	 n/a  	 55 
312.15 	 0 	 button press 	 n/a 	 n/a 	 n/a 	 n/a 	 n/a  	 55 
315.73 	 4.83 	 AA 	 0.83 	 4 	 0 	 3 	 3 	 n/a 
316.57 	 0 	 button press 	 n/a 	 n/a 	 n/a 	 n/a 	 n/a  	 51 
317.55 	 0 	 button press 	 n/a 	 n/a 	 n/a 	 n/a 	 n/a  	 54 
323.79 	 4.83 	 AA 	 0.97 	 6 	 0 	 3 	 3 	 n/a 
324.76 	 0 	 button press 	 n/a 	 n/a 	 n/a 	 n/a 	 n/a  	 51 
325.71 	 0 	 button press 	 n/a 	 n/a 	 n/a 	 n/a 	 n/a  	 54 
329.70 	 4.83 	 CC 	 1.05 	 1 	 0 	 1 	 1 	 n/a 
330.75 	 0 	 button press 	 n/a 	 n/a 	 n/a 	 n/a 	 n/a  	 50 
331.53 	 0 	 button press 	 n/a 	 n/a 	 n/a 	 n/a 	 n/a  	 55 
337.49 	 4.83 	 AC 	 0.85 	 3 	 0 	 3 	 1 	 n/a 
338.34 	 0 	 button press 	 n/a 	 n/a 	 n/a 	 n/a 	 n/a  	 50 
339.41 	 0 	 button press 	 n/a 	 n/a 	 n/a 	 n/a 	 n/a  	 54 
339.69 	 0 	 button press 	 n/a 	 n/a 	 n/a 	 n/a 	 n/a  	 54 
344.28 	 4.83 	 AA 	 0.75 	 4 	 0 	 3 	 3 	 n/a 
345.03 	 0 	 button press 	 n/a 	 n/a 	 n/a 	 n/a 	 n/a  	 51 
346.43 	 0 	 button press 	 n/a 	 n/a 	 n/a 	 n/a 	 n/a  	 54 
351.19 	 4.83 	 CC 	 0.95 	 6 	 0 	 1 	 1 	 n/a 
352.14 	 0 	 button press 	 n/a 	 n/a 	 n/a 	 n/a 	 n/a  	 50 
353.54 	 0 	 button press 	 n/a 	 n/a 	 n/a 	 n/a 	 n/a  	 54 
354.04 	 0 	 button press 	 n/a 	 n/a 	 n/a 	 n/a 	 n/a  	 54 
358.63 	 4.83 	 CC 	 1.05 	 6 	 0 	 1 	 1 	 n/a 
359.68 	 0 	 button press 	 n/a 	 n/a 	 n/a 	 n/a 	 n/a  	 50 
360.48 	 0 	 button press 	 n/a 	 n/a 	 n/a 	 n/a 	 n/a  	 54 
360.75 	 0 	 button press 	 n/a 	 n/a 	 n/a 	 n/a 	 n/a  	 54 
361.01 	 0 	 button press 	 n/a 	 n/a 	 n/a 	 n/a 	 n/a  	 54 
361.26 	 0 	 button press 	 n/a 	 n/a 	 n/a 	 n/a 	 n/a  	 54 
361.50 	 0 	 button press 	 n/a 	 n/a 	 n/a 	 n/a 	 n/a  	 54 
364.66 	 4.83 	 CC 	 0.82 	 6 	 0 	 1 	 1 	 n/a 
365.48 	 0 	 button press 	 n/a 	 n/a 	 n/a 	 n/a 	 n/a  	 50 
366.41 	 0 	 button press 	 n/a 	 n/a 	 n/a 	 n/a 	 n/a  	 54 
372.14 	 4.83 	 AA 	 1.10 	 4 	 0 	 3 	 3 	 n/a 
373.23 	 0 	 button press 	 n/a 	 n/a 	 n/a 	 n/a 	 n/a  	 51 
374.23 	 0 	 button press 	 n/a 	 n/a 	 n/a 	 n/a 	 n/a  	 55 
374.65 	 0 	 button press 	 n/a 	 n/a 	 n/a 	 n/a 	 n/a  	 54 
374.97 	 0 	 button press 	 n/a 	 n/a 	 n/a 	 n/a 	 n/a  	 54 
381.01 	 4.83 	 CC 	 0.98 	 4 	 0 	 1 	 1 	 n/a 
381.99 	 0 	 button press 	 n/a 	 n/a 	 n/a 	 n/a 	 n/a  	 50 
383.09 	 0 	 button press 	 n/a 	 n/a 	 n/a 	 n/a 	 n/a  	 55 
383.41 	 0 	 button press 	 n/a 	 n/a 	 n/a 	 n/a 	 n/a  	 55 
388.10 	 4.83 	 AA 	 0.69 	 6 	 0 	 3 	 3 	 n/a 
388.78 	 0 	 button press 	 n/a 	 n/a 	 n/a 	 n/a 	 n/a  	 51 
389.96 	 0 	 button press 	 n/a 	 n/a 	 n/a 	 n/a 	 n/a  	 54 
394.09 	 4.83 	 CC 	 0.87 	 1 	 0 	 1 	 1 	 n/a 
394.96 	 0 	 button press 	 n/a 	 n/a 	 n/a 	 n/a 	 n/a  	 50 
395.96 	 0 	 button press 	 n/a 	 n/a 	 n/a 	 n/a 	 n/a  	 55 
396.24 	 0 	 button press 	 n/a 	 n/a 	 n/a 	 n/a 	 n/a  	 55 
402.92 	 4.83 	 CA 	 1.38 	 2 	 0 	 1 	 3 	 n/a 
403.25 	 0 	 button press 	 n/a 	 n/a 	 n/a 	 n/a 	 n/a  	 51 
404.30 	 0 	 button press 	 n/a 	 n/a 	 n/a 	 n/a 	 n/a  	 51 
405.43 	 0 	 button press 	 n/a 	 n/a 	 n/a 	 n/a 	 n/a  	 55 
408.76 	 4.83 	 CC 	 0.85 	 1 	 0 	 1 	 1 	 n/a 
409.61 	 0 	 button press 	 n/a 	 n/a 	 n/a 	 n/a 	 n/a  	 50 
411.11 	 0 	 button press 	 n/a 	 n/a 	 n/a 	 n/a 	 n/a  	 55 
411.39 	 0 	 button press 	 n/a 	 n/a 	 n/a 	 n/a 	 n/a  	 55 
411.64 	 0 	 button press 	 n/a 	 n/a 	 n/a 	 n/a 	 n/a  	 55 
415.98 	 4.83 	 AA 	 0.80 	 5 	 0 	 3 	 3 	 n/a 
416.78 	 0 	 button press 	 n/a 	 n/a 	 n/a 	 n/a 	 n/a  	 51 
418.00 	 0 	 button press 	 n/a 	 n/a 	 n/a 	 n/a 	 n/a  	 54 
418.30 	 0 	 button press 	 n/a 	 n/a 	 n/a 	 n/a 	 n/a  	 54 
418.55 	 0 	 button press 	 n/a 	 n/a 	 n/a 	 n/a 	 n/a  	 54 
424.54 	 4.83 	 CC 	 0.65 	 6 	 0 	 1 	 1 	 n/a 
425.19 	 0 	 button press 	 n/a 	 n/a 	 n/a 	 n/a 	 n/a  	 50 
426.41 	 0 	 button press 	 n/a 	 n/a 	 n/a 	 n/a 	 n/a  	 54 
430.67 	 4.83 	 AA 	 0.58 	 6 	 0 	 3 	 3 	 n/a 
431.25 	 0 	 button press 	 n/a 	 n/a 	 n/a 	 n/a 	 n/a  	 51 
431.62 	 0 	 button press 	 n/a 	 n/a 	 n/a 	 n/a 	 n/a  	 54 
432.51 	 0 	 button press 	 n/a 	 n/a 	 n/a 	 n/a 	 n/a  	 54 
436.94 	 4.83 	 CC 	 0.60 	 6 	 0 	 1 	 1 	 n/a 
437.54 	 0 	 button press 	 n/a 	 n/a 	 n/a 	 n/a 	 n/a  	 50 
438.91 	 0 	 button press 	 n/a 	 n/a 	 n/a 	 n/a 	 n/a  	 54 
439.19 	 0 	 button press 	 n/a 	 n/a 	 n/a 	 n/a 	 n/a  	 54 
439.49 	 0 	 button press 	 n/a 	 n/a 	 n/a 	 n/a 	 n/a  	 54 
439.77 	 0 	 button press 	 n/a 	 n/a 	 n/a 	 n/a 	 n/a  	 54 
440.07 	 0 	 button press 	 n/a 	 n/a 	 n/a 	 n/a 	 n/a  	 54 
445.07 	 4.83 	 AA 	 0.88 	 4 	 0 	 3 	 3 	 n/a 
445.95 	 0 	 button press 	 n/a 	 n/a 	 n/a 	 n/a 	 n/a  	 51 
447.41 	 0 	 button press 	 n/a 	 n/a 	 n/a 	 n/a 	 n/a  	 55 
447.76 	 0 	 button press 	 n/a 	 n/a 	 n/a 	 n/a 	 n/a  	 55 
454.16 	 4.83 	 CA 	 0.87 	 6 	 0 	 1 	 3 	 n/a 
455.02 	 0 	 button press 	 n/a 	 n/a 	 n/a 	 n/a 	 n/a  	 51 
456.42 	 0 	 button press 	 n/a 	 n/a 	 n/a 	 n/a 	 n/a  	 54 
456.95 	 0 	 button press 	 n/a 	 n/a 	 n/a 	 n/a 	 n/a  	 54 
461.86 	 4.83 	 CC 	 0.85 	 1 	 0 	 1 	 1 	 n/a 
462.71 	 0 	 button press 	 n/a 	 n/a 	 n/a 	 n/a 	 n/a  	 50 
463.81 	 0 	 button press 	 n/a 	 n/a 	 n/a 	 n/a 	 n/a  	 55 
464.11 	 0 	 button press 	 n/a 	 n/a 	 n/a 	 n/a 	 n/a  	 55 
464.39 	 0 	 button press 	 n/a 	 n/a 	 n/a 	 n/a 	 n/a  	 55 
464.63 	 0 	 button press 	 n/a 	 n/a 	 n/a 	 n/a 	 n/a  	 55 
470.07 	 4.83 	 AA 	 1.08 	 6 	 0 	 3 	 3 	 n/a 
471.15 	 0 	 button press 	 n/a 	 n/a 	 n/a 	 n/a 	 n/a  	 51 
471.97 	 0 	 button press 	 n/a 	 n/a 	 n/a 	 n/a 	 n/a  	 54 
472.27 	 0 	 button press 	 n/a 	 n/a 	 n/a 	 n/a 	 n/a  	 54 
472.54 	 0 	 button press 	 n/a 	 n/a 	 n/a 	 n/a 	 n/a  	 54 
478.15 	 4.83 	 CA 	 1.02 	 3 	 0 	 1 	 3 	 n/a 
479.16 	 0 	 button press 	 n/a 	 n/a 	 n/a 	 n/a 	 n/a  	 51 
480.09 	 0 	 button press 	 n/a 	 n/a 	 n/a 	 n/a 	 n/a  	 55 
480.46 	 0 	 button press 	 n/a 	 n/a 	 n/a 	 n/a 	 n/a  	 54 
480.73 	 0 	 button press 	 n/a 	 n/a 	 n/a 	 n/a 	 n/a  	 54 
485.09 	 4.83 	 AA 	 0.72 	 6 	 0 	 3 	 3 	 n/a 
485.80 	 0 	 button press 	 n/a 	 n/a 	 n/a 	 n/a 	 n/a  	 51 
486.92 	 0 	 button press 	 n/a 	 n/a 	 n/a 	 n/a 	 n/a  	 54 
490.78 	 4.83 	 AC 	 0.72 	 2 	 0 	 3 	 1 	 n/a 
491.50 	 0 	 button press 	 n/a 	 n/a 	 n/a 	 n/a 	 n/a  	 50 
492.26 	 0 	 button press 	 n/a 	 n/a 	 n/a 	 n/a 	 n/a  	 55 
497.52 	 4.83 	 CA 	 1.17 	 4 	 0 	 1 	 3 	 n/a 
498.69 	 0 	 button press 	 n/a 	 n/a 	 n/a 	 n/a 	 n/a  	 51 
499.67 	 0 	 button press 	 n/a 	 n/a 	 n/a 	 n/a 	 n/a  	 55 
500.32 	 0 	 button press 	 n/a 	 n/a 	 n/a 	 n/a 	 n/a  	 55 
505.56 	 4.83 	 AA 	 1.22 	 6 	 0 	 3 	 3 	 n/a 
506.78 	 0 	 button press 	 n/a 	 n/a 	 n/a 	 n/a 	 n/a  	 51 
507.53 	 0 	 button press 	 n/a 	 n/a 	 n/a 	 n/a 	 n/a  	 54 
507.79 	 0 	 button press 	 n/a 	 n/a 	 n/a 	 n/a 	 n/a  	 54 
512.12 	 4.83 	 AA 	 1.03 	 3 	 0 	 3 	 3 	 n/a 
513.15 	 0 	 button press 	 n/a 	 n/a 	 n/a 	 n/a 	 n/a  	 51 
514.05 	 0 	 button press 	 n/a 	 n/a 	 n/a 	 n/a 	 n/a  	 55 
514.34 	 0 	 button press 	 n/a 	 n/a 	 n/a 	 n/a 	 n/a  	 55 
514.64 	 0 	 button press 	 n/a 	 n/a 	 n/a 	 n/a 	 n/a  	 55 
515.15 	 0 	 button press 	 n/a 	 n/a 	 n/a 	 n/a 	 n/a  	 54 
516.15 	 0 	 button press 	 n/a 	 n/a 	 n/a 	 n/a 	 n/a  	 54 
518.33 	 4.83 	 CC 	 1.32 	 4 	 0 	 1 	 1 	 n/a 
519.65 	 0 	 button press 	 n/a 	 n/a 	 n/a 	 n/a 	 n/a  	 50 
520.60 	 0 	 button press 	 n/a 	 n/a 	 n/a 	 n/a 	 n/a  	 54 
520.86 	 0 	 button press 	 n/a 	 n/a 	 n/a 	 n/a 	 n/a  	 54 
521.13 	 0 	 button press 	 n/a 	 n/a 	 n/a 	 n/a 	 n/a  	 54 
525.74 	 4.83 	 CC 	 1.23 	 1 	 0 	 1 	 1 	 n/a 
526.97 	 0 	 button press 	 n/a 	 n/a 	 n/a 	 n/a 	 n/a  	 50 
527.74 	 0 	 button press 	 n/a 	 n/a 	 n/a 	 n/a 	 n/a  	 55 
534.95 	 4.83 	 CC 	 1.23 	 6 	 0 	 1 	 1 	 n/a 
536.18 	 0 	 button press 	 n/a 	 n/a 	 n/a 	 n/a 	 n/a  	 50 
536.81 	 0 	 button press 	 n/a 	 n/a 	 n/a 	 n/a 	 n/a  	 54 
537.08 	 0 	 button press 	 n/a 	 n/a 	 n/a 	 n/a 	 n/a  	 54 
542.27 	 4.83 	 AA 	 1.03 	 6 	 0 	 3 	 3 	 n/a 
543.30 	 0 	 button press 	 n/a 	 n/a 	 n/a 	 n/a 	 n/a  	 51 
544.14 	 0 	 button press 	 n/a 	 n/a 	 n/a 	 n/a 	 n/a  	 54 
549.48 	 4.83 	 AA 	 1.22 	 5 	 0 	 3 	 3 	 n/a 
550.69 	 0 	 button press 	 n/a 	 n/a 	 n/a 	 n/a 	 n/a  	 51 
552.11 	 0 	 button press 	 n/a 	 n/a 	 n/a 	 n/a 	 n/a  	 55 
557.77 	 4.83 	 AC 	 0.77 	 3 	 0 	 3 	 1 	 n/a 
558.54 	 0 	 button press 	 n/a 	 n/a 	 n/a 	 n/a 	 n/a  	 50 
559.58 	 0 	 button press 	 n/a 	 n/a 	 n/a 	 n/a 	 n/a  	 55 
559.85 	 0 	 button press 	 n/a 	 n/a 	 n/a 	 n/a 	 n/a  	 55 
560.68 	 0 	 button press 	 n/a 	 n/a 	 n/a 	 n/a 	 n/a  	 54 
563.60 	 4.83 	 CA 	 1.25 	 4 	 0 	 1 	 3 	 n/a 
564.85 	 0 	 button press 	 n/a 	 n/a 	 n/a 	 n/a 	 n/a  	 51 
565.64 	 0 	 button press 	 n/a 	 n/a 	 n/a 	 n/a 	 n/a  	 55 
572.82 	 4.83 	 AC 	 1.12 	 5 	 0 	 3 	 1 	 n/a 
572.87 	 0 	 button press 	 n/a 	 n/a 	 n/a 	 n/a 	 n/a  	 50 
573.94 	 0 	 button press 	 n/a 	 n/a 	 n/a 	 n/a 	 n/a  	 50 
575.22 	 0 	 button press 	 n/a 	 n/a 	 n/a 	 n/a 	 n/a  	 54 
578.46 	 4.83 	 CA 	 0.75 	 5 	 0 	 1 	 3 	 n/a 
579.21 	 0 	 button press 	 n/a 	 n/a 	 n/a 	 n/a 	 n/a  	 51 
580.43 	 0 	 button press 	 n/a 	 n/a 	 n/a 	 n/a 	 n/a  	 54 
580.71 	 0 	 button press 	 n/a 	 n/a 	 n/a 	 n/a 	 n/a  	 54 
584.54 	 4.83 	 CC 	 1.08 	 1 	 0 	 1 	 1 	 n/a 
585.62 	 0 	 button press 	 n/a 	 n/a 	 n/a 	 n/a 	 n/a  	 50 
586.29 	 0 	 button press 	 n/a 	 n/a 	 n/a 	 n/a 	 n/a  	 55 
593.53 	 4.83 	 AA 	 0.93 	 3 	 0 	 3 	 3 	 n/a 
594.46 	 0 	 button press 	 n/a 	 n/a 	 n/a 	 n/a 	 n/a  	 51 
596.14 	 0 	 button press 	 n/a 	 n/a 	 n/a 	 n/a 	 n/a  	 54 
596.51 	 0 	 button press 	 n/a 	 n/a 	 n/a 	 n/a 	 n/a  	 54 
