onset 	 duration 	 trial_type 	 response_time 	 confidence 	 detection 	 stimulus 	 response 	 key_id 
10.03 	 4.83 	 AA 	 0.84 	 5 	 0 	 3 	 3 	 n/a 
10.87 	 0 	 button press 	 n/a 	 n/a 	 n/a 	 n/a 	 n/a  	 51 
12.39 	 0 	 button press 	 n/a 	 n/a 	 n/a 	 n/a 	 n/a  	 54 
12.97 	 0 	 button press 	 n/a 	 n/a 	 n/a 	 n/a 	 n/a  	 54 
16.70 	 4.83 	 AC 	 1.27 	 1 	 0 	 3 	 1 	 n/a 
17.96 	 0 	 button press 	 n/a 	 n/a 	 n/a 	 n/a 	 n/a  	 50 
18.91 	 0 	 button press 	 n/a 	 n/a 	 n/a 	 n/a 	 n/a  	 55 
19.33 	 0 	 button press 	 n/a 	 n/a 	 n/a 	 n/a 	 n/a  	 55 
25.05 	 4.83 	 AA 	 1.02 	 6 	 0 	 3 	 3 	 n/a 
26.07 	 0 	 button press 	 n/a 	 n/a 	 n/a 	 n/a 	 n/a  	 51 
31.56 	 4.83 	 CC 	 1.05 	 6 	 0 	 1 	 1 	 n/a 
32.61 	 0 	 button press 	 n/a 	 n/a 	 n/a 	 n/a 	 n/a  	 50 
33.54 	 0 	 button press 	 n/a 	 n/a 	 n/a 	 n/a 	 n/a  	 54 
33.83 	 0 	 button press 	 n/a 	 n/a 	 n/a 	 n/a 	 n/a  	 54 
34.14 	 0 	 button press 	 n/a 	 n/a 	 n/a 	 n/a 	 n/a  	 54 
34.48 	 0 	 button press 	 n/a 	 n/a 	 n/a 	 n/a 	 n/a  	 54 
34.73 	 0 	 button press 	 n/a 	 n/a 	 n/a 	 n/a 	 n/a  	 54 
40.12 	 4.83 	 AA 	 0.87 	 6 	 0 	 3 	 3 	 n/a 
40.99 	 0 	 button press 	 n/a 	 n/a 	 n/a 	 n/a 	 n/a  	 51 
42.37 	 0 	 button press 	 n/a 	 n/a 	 n/a 	 n/a 	 n/a  	 54 
42.67 	 0 	 button press 	 n/a 	 n/a 	 n/a 	 n/a 	 n/a  	 54 
43.05 	 0 	 button press 	 n/a 	 n/a 	 n/a 	 n/a 	 n/a  	 54 
43.37 	 0 	 button press 	 n/a 	 n/a 	 n/a 	 n/a 	 n/a  	 54 
46.83 	 4.83 	 CA 	 1.08 	 6 	 0 	 1 	 3 	 n/a 
47.91 	 0 	 button press 	 n/a 	 n/a 	 n/a 	 n/a 	 n/a  	 51 
52.47 	 4.83 	 CA 	 1.28 	 1 	 0 	 1 	 3 	 n/a 
53.75 	 0 	 button press 	 n/a 	 n/a 	 n/a 	 n/a 	 n/a  	 51 
54.57 	 0 	 button press 	 n/a 	 n/a 	 n/a 	 n/a 	 n/a  	 55 
54.89 	 0 	 button press 	 n/a 	 n/a 	 n/a 	 n/a 	 n/a  	 55 
55.17 	 0 	 button press 	 n/a 	 n/a 	 n/a 	 n/a 	 n/a  	 55 
55.44 	 0 	 button press 	 n/a 	 n/a 	 n/a 	 n/a 	 n/a  	 55 
55.72 	 0 	 button press 	 n/a 	 n/a 	 n/a 	 n/a 	 n/a  	 55 
60.35 	 4.83 	 CA 	 0.90 	 5 	 0 	 1 	 3 	 n/a 
61.25 	 0 	 button press 	 n/a 	 n/a 	 n/a 	 n/a 	 n/a  	 51 
62.49 	 0 	 button press 	 n/a 	 n/a 	 n/a 	 n/a 	 n/a  	 54 
62.94 	 0 	 button press 	 n/a 	 n/a 	 n/a 	 n/a 	 n/a  	 54 
67.74 	 4.83 	 AA 	 0.93 	 4 	 0 	 3 	 3 	 n/a 
68.67 	 0 	 button press 	 n/a 	 n/a 	 n/a 	 n/a 	 n/a  	 51 
69.80 	 0 	 button press 	 n/a 	 n/a 	 n/a 	 n/a 	 n/a  	 54 
76.18 	 4.83 	 CA 	 1.18 	 2 	 0 	 1 	 3 	 n/a 
77.36 	 0 	 button press 	 n/a 	 n/a 	 n/a 	 n/a 	 n/a  	 51 
79.21 	 0 	 button press 	 n/a 	 n/a 	 n/a 	 n/a 	 n/a  	 54 
84.17 	 4.83 	 AA 	 0.88 	 6 	 0 	 3 	 3 	 n/a 
85.05 	 0 	 button press 	 n/a 	 n/a 	 n/a 	 n/a 	 n/a  	 51 
91.83 	 4.83 	 CA 	 1.47 	 1 	 0 	 1 	 3 	 n/a 
93.29 	 0 	 button press 	 n/a 	 n/a 	 n/a 	 n/a 	 n/a  	 51 
94.07 	 0 	 button press 	 n/a 	 n/a 	 n/a 	 n/a 	 n/a  	 55 
100.50 	 4.83 	 AA 	 1.02 	 3 	 0 	 3 	 3 	 n/a 
101.52 	 0 	 button press 	 n/a 	 n/a 	 n/a 	 n/a 	 n/a  	 51 
102.51 	 0 	 button press 	 n/a 	 n/a 	 n/a 	 n/a 	 n/a  	 54 
103.21 	 0 	 button press 	 n/a 	 n/a 	 n/a 	 n/a 	 n/a  	 54 
107.87 	 4.83 	 CA 	 1.48 	 3 	 0 	 1 	 3 	 n/a 
109.36 	 0 	 button press 	 n/a 	 n/a 	 n/a 	 n/a 	 n/a  	 51 
110.46 	 0 	 button press 	 n/a 	 n/a 	 n/a 	 n/a 	 n/a  	 55 
113.82 	 4.83 	 AA 	 1.10 	 6 	 0 	 3 	 3 	 n/a 
114.92 	 0 	 button press 	 n/a 	 n/a 	 n/a 	 n/a 	 n/a  	 51 
115.92 	 0 	 button press 	 n/a 	 n/a 	 n/a 	 n/a 	 n/a  	 54 
121.24 	 4.83 	 AA 	 0.97 	 5 	 0 	 3 	 3 	 n/a 
122.21 	 0 	 button press 	 n/a 	 n/a 	 n/a 	 n/a 	 n/a  	 51 
123.29 	 0 	 button press 	 n/a 	 n/a 	 n/a 	 n/a 	 n/a  	 54 
123.59 	 0 	 button press 	 n/a 	 n/a 	 n/a 	 n/a 	 n/a  	 54 
123.87 	 0 	 button press 	 n/a 	 n/a 	 n/a 	 n/a 	 n/a  	 54 
124.19 	 0 	 button press 	 n/a 	 n/a 	 n/a 	 n/a 	 n/a  	 54 
128.47 	 4.83 	 AA 	 1.33 	 6 	 0 	 3 	 3 	 n/a 
129.80 	 0 	 button press 	 n/a 	 n/a 	 n/a 	 n/a 	 n/a  	 51 
130.73 	 0 	 button press 	 n/a 	 n/a 	 n/a 	 n/a 	 n/a  	 54 
131.05 	 0 	 button press 	 n/a 	 n/a 	 n/a 	 n/a 	 n/a  	 54 
131.31 	 0 	 button press 	 n/a 	 n/a 	 n/a 	 n/a 	 n/a  	 54 
135.98 	 4.83 	 AA 	 1.13 	 6 	 0 	 3 	 3 	 n/a 
137.11 	 0 	 button press 	 n/a 	 n/a 	 n/a 	 n/a 	 n/a  	 51 
138.24 	 0 	 button press 	 n/a 	 n/a 	 n/a 	 n/a 	 n/a  	 54 
138.59 	 0 	 button press 	 n/a 	 n/a 	 n/a 	 n/a 	 n/a  	 54 
143.12 	 4.83 	 CC 	 0.88 	 6 	 0 	 1 	 1 	 n/a 
144.00 	 0 	 button press 	 n/a 	 n/a 	 n/a 	 n/a 	 n/a  	 50 
145.01 	 0 	 button press 	 n/a 	 n/a 	 n/a 	 n/a 	 n/a  	 54 
145.28 	 0 	 button press 	 n/a 	 n/a 	 n/a 	 n/a 	 n/a  	 54 
145.55 	 0 	 button press 	 n/a 	 n/a 	 n/a 	 n/a 	 n/a  	 54 
145.81 	 0 	 button press 	 n/a 	 n/a 	 n/a 	 n/a 	 n/a  	 54 
149.14 	 4.83 	 CC 	 1.30 	 2 	 0 	 1 	 1 	 n/a 
150.44 	 0 	 button press 	 n/a 	 n/a 	 n/a 	 n/a 	 n/a  	 50 
151.81 	 0 	 button press 	 n/a 	 n/a 	 n/a 	 n/a 	 n/a  	 54 
156.67 	 4.83 	 AA 	 1.03 	 6 	 0 	 3 	 3 	 n/a 
157.70 	 0 	 button press 	 n/a 	 n/a 	 n/a 	 n/a 	 n/a  	 51 
158.83 	 0 	 button press 	 n/a 	 n/a 	 n/a 	 n/a 	 n/a  	 54 
159.13 	 0 	 button press 	 n/a 	 n/a 	 n/a 	 n/a 	 n/a  	 54 
159.61 	 0 	 button press 	 n/a 	 n/a 	 n/a 	 n/a 	 n/a  	 54 
162.99 	 4.83 	 CC 	 0.83 	 4 	 0 	 1 	 1 	 n/a 
163.83 	 0 	 button press 	 n/a 	 n/a 	 n/a 	 n/a 	 n/a  	 50 
164.88 	 0 	 button press 	 n/a 	 n/a 	 n/a 	 n/a 	 n/a  	 54 
165.11 	 0 	 button press 	 n/a 	 n/a 	 n/a 	 n/a 	 n/a  	 54 
165.36 	 0 	 button press 	 n/a 	 n/a 	 n/a 	 n/a 	 n/a  	 54 
169.70 	 4.83 	 CC 	 1.03 	 5 	 0 	 1 	 1 	 n/a 
170.74 	 0 	 button press 	 n/a 	 n/a 	 n/a 	 n/a 	 n/a  	 50 
171.90 	 0 	 button press 	 n/a 	 n/a 	 n/a 	 n/a 	 n/a  	 54 
172.20 	 0 	 button press 	 n/a 	 n/a 	 n/a 	 n/a 	 n/a  	 54 
172.53 	 0 	 button press 	 n/a 	 n/a 	 n/a 	 n/a 	 n/a  	 54 
175.73 	 4.83 	 AA 	 0.78 	 6 	 0 	 3 	 3 	 n/a 
176.51 	 0 	 button press 	 n/a 	 n/a 	 n/a 	 n/a 	 n/a  	 51 
177.66 	 0 	 button press 	 n/a 	 n/a 	 n/a 	 n/a 	 n/a  	 54 
177.96 	 0 	 button press 	 n/a 	 n/a 	 n/a 	 n/a 	 n/a  	 54 
178.23 	 0 	 button press 	 n/a 	 n/a 	 n/a 	 n/a 	 n/a  	 54 
178.53 	 0 	 button press 	 n/a 	 n/a 	 n/a 	 n/a 	 n/a  	 54 
182.24 	 4.83 	 AA 	 0.88 	 6 	 0 	 3 	 3 	 n/a 
183.12 	 0 	 button press 	 n/a 	 n/a 	 n/a 	 n/a 	 n/a  	 51 
184.30 	 0 	 button press 	 n/a 	 n/a 	 n/a 	 n/a 	 n/a  	 54 
188.25 	 4.83 	 CC 	 0.78 	 5 	 0 	 1 	 1 	 n/a 
189.03 	 0 	 button press 	 n/a 	 n/a 	 n/a 	 n/a 	 n/a  	 50 
190.96 	 0 	 button press 	 n/a 	 n/a 	 n/a 	 n/a 	 n/a  	 54 
195.34 	 4.83 	 CA 	 0.98 	 6 	 0 	 1 	 3 	 n/a 
196.32 	 0 	 button press 	 n/a 	 n/a 	 n/a 	 n/a 	 n/a  	 51 
197.52 	 0 	 button press 	 n/a 	 n/a 	 n/a 	 n/a 	 n/a  	 54 
197.89 	 0 	 button press 	 n/a 	 n/a 	 n/a 	 n/a 	 n/a  	 54 
201.88 	 4.83 	 CC 	 1.15 	 1 	 0 	 1 	 1 	 n/a 
203.03 	 0 	 button press 	 n/a 	 n/a 	 n/a 	 n/a 	 n/a  	 50 
203.91 	 0 	 button press 	 n/a 	 n/a 	 n/a 	 n/a 	 n/a  	 55 
204.25 	 0 	 button press 	 n/a 	 n/a 	 n/a 	 n/a 	 n/a  	 55 
204.53 	 0 	 button press 	 n/a 	 n/a 	 n/a 	 n/a 	 n/a  	 55 
204.78 	 0 	 button press 	 n/a 	 n/a 	 n/a 	 n/a 	 n/a  	 55 
205.01 	 0 	 button press 	 n/a 	 n/a 	 n/a 	 n/a 	 n/a  	 55 
210.06 	 4.83 	 AA 	 0.88 	 6 	 0 	 3 	 3 	 n/a 
210.94 	 0 	 button press 	 n/a 	 n/a 	 n/a 	 n/a 	 n/a  	 51 
212.05 	 0 	 button press 	 n/a 	 n/a 	 n/a 	 n/a 	 n/a  	 54 
212.34 	 0 	 button press 	 n/a 	 n/a 	 n/a 	 n/a 	 n/a  	 54 
212.57 	 0 	 button press 	 n/a 	 n/a 	 n/a 	 n/a 	 n/a  	 54 
217.01 	 4.83 	 CA 	 1.12 	 2 	 0 	 1 	 3 	 n/a 
218.13 	 0 	 button press 	 n/a 	 n/a 	 n/a 	 n/a 	 n/a  	 51 
219.06 	 0 	 button press 	 n/a 	 n/a 	 n/a 	 n/a 	 n/a  	 55 
219.35 	 0 	 button press 	 n/a 	 n/a 	 n/a 	 n/a 	 n/a  	 55 
224.61 	 4.83 	 AC 	 0.77 	 1 	 0 	 3 	 1 	 n/a 
225.37 	 0 	 button press 	 n/a 	 n/a 	 n/a 	 n/a 	 n/a  	 50 
226.55 	 0 	 button press 	 n/a 	 n/a 	 n/a 	 n/a 	 n/a  	 55 
226.82 	 0 	 button press 	 n/a 	 n/a 	 n/a 	 n/a 	 n/a  	 55 
227.07 	 0 	 button press 	 n/a 	 n/a 	 n/a 	 n/a 	 n/a  	 55 
233.01 	 4.83 	 AA 	 1.25 	 6 	 0 	 3 	 3 	 n/a 
234.26 	 0 	 button press 	 n/a 	 n/a 	 n/a 	 n/a 	 n/a  	 51 
235.06 	 0 	 button press 	 n/a 	 n/a 	 n/a 	 n/a 	 n/a  	 54 
240.42 	 4.83 	 CC 	 0.87 	 2 	 0 	 1 	 1 	 n/a 
241.29 	 0 	 button press 	 n/a 	 n/a 	 n/a 	 n/a 	 n/a  	 50 
242.87 	 0 	 button press 	 n/a 	 n/a 	 n/a 	 n/a 	 n/a  	 55 
243.15 	 0 	 button press 	 n/a 	 n/a 	 n/a 	 n/a 	 n/a  	 55 
248.66 	 4.83 	 CA 	 1.23 	 4 	 0 	 1 	 3 	 n/a 
249.89 	 0 	 button press 	 n/a 	 n/a 	 n/a 	 n/a 	 n/a  	 51 
250.73 	 0 	 button press 	 n/a 	 n/a 	 n/a 	 n/a 	 n/a  	 54 
250.99 	 0 	 button press 	 n/a 	 n/a 	 n/a 	 n/a 	 n/a  	 54 
251.28 	 0 	 button press 	 n/a 	 n/a 	 n/a 	 n/a 	 n/a  	 54 
256.57 	 4.83 	 AA 	 1.08 	 6 	 0 	 3 	 3 	 n/a 
257.65 	 0 	 button press 	 n/a 	 n/a 	 n/a 	 n/a 	 n/a  	 51 
258.38 	 0 	 button press 	 n/a 	 n/a 	 n/a 	 n/a 	 n/a  	 54 
258.62 	 0 	 button press 	 n/a 	 n/a 	 n/a 	 n/a 	 n/a  	 54 
258.90 	 0 	 button press 	 n/a 	 n/a 	 n/a 	 n/a 	 n/a  	 54 
259.17 	 0 	 button press 	 n/a 	 n/a 	 n/a 	 n/a 	 n/a  	 54 
259.42 	 0 	 button press 	 n/a 	 n/a 	 n/a 	 n/a 	 n/a  	 54 
264.54 	 4.83 	 CA 	 1.50 	 3 	 0 	 1 	 3 	 n/a 
266.04 	 0 	 button press 	 n/a 	 n/a 	 n/a 	 n/a 	 n/a  	 51 
267.14 	 0 	 button press 	 n/a 	 n/a 	 n/a 	 n/a 	 n/a  	 54 
267.69 	 0 	 button press 	 n/a 	 n/a 	 n/a 	 n/a 	 n/a  	 54 
272.90 	 4.83 	 CA 	 1.43 	 1 	 0 	 1 	 3 	 n/a 
274.33 	 0 	 button press 	 n/a 	 n/a 	 n/a 	 n/a 	 n/a  	 51 
275.43 	 0 	 button press 	 n/a 	 n/a 	 n/a 	 n/a 	 n/a  	 55 
275.73 	 0 	 button press 	 n/a 	 n/a 	 n/a 	 n/a 	 n/a  	 55 
276.08 	 0 	 button press 	 n/a 	 n/a 	 n/a 	 n/a 	 n/a  	 55 
281.42 	 4.83 	 AC 	 0.90 	 3 	 0 	 3 	 1 	 n/a 
282.32 	 0 	 button press 	 n/a 	 n/a 	 n/a 	 n/a 	 n/a  	 50 
283.49 	 0 	 button press 	 n/a 	 n/a 	 n/a 	 n/a 	 n/a  	 55 
287.10 	 4.83 	 CC 	 1.03 	 4 	 0 	 1 	 1 	 n/a 
288.13 	 0 	 button press 	 n/a 	 n/a 	 n/a 	 n/a 	 n/a  	 50 
289.51 	 0 	 button press 	 n/a 	 n/a 	 n/a 	 n/a 	 n/a  	 55 
289.85 	 0 	 button press 	 n/a 	 n/a 	 n/a 	 n/a 	 n/a  	 55 
295.16 	 4.83 	 AA 	 0.70 	 6 	 0 	 3 	 3 	 n/a 
295.86 	 0 	 button press 	 n/a 	 n/a 	 n/a 	 n/a 	 n/a  	 51 
297.02 	 0 	 button press 	 n/a 	 n/a 	 n/a 	 n/a 	 n/a  	 54 
297.26 	 0 	 button press 	 n/a 	 n/a 	 n/a 	 n/a 	 n/a  	 54 
297.54 	 0 	 button press 	 n/a 	 n/a 	 n/a 	 n/a 	 n/a  	 54 
297.82 	 0 	 button press 	 n/a 	 n/a 	 n/a 	 n/a 	 n/a  	 54 
298.07 	 0 	 button press 	 n/a 	 n/a 	 n/a 	 n/a 	 n/a  	 54 
311.99 	 4.83 	 NN 	 1.08 	 2 	 1 	 0 	 0 	 n/a 
313.07 	 0 	 button press 	 n/a 	 n/a 	 n/a 	 n/a 	 n/a  	 50 
314.49 	 0 	 button press 	 n/a 	 n/a 	 n/a 	 n/a 	 n/a  	 54 
320.10 	 4.83 	 NY 	 1.25 	 2 	 1 	 0 	 1 	 n/a 
321.34 	 0 	 button press 	 n/a 	 n/a 	 n/a 	 n/a 	 n/a  	 51 
322.34 	 0 	 button press 	 n/a 	 n/a 	 n/a 	 n/a 	 n/a  	 55 
322.61 	 0 	 button press 	 n/a 	 n/a 	 n/a 	 n/a 	 n/a  	 55 
322.86 	 0 	 button press 	 n/a 	 n/a 	 n/a 	 n/a 	 n/a  	 55 
327.34 	 4.83 	 YY 	 0.87 	 6 	 1 	 1 	 1 	 n/a 
328.20 	 0 	 button press 	 n/a 	 n/a 	 n/a 	 n/a 	 n/a  	 51 
329.25 	 0 	 button press 	 n/a 	 n/a 	 n/a 	 n/a 	 n/a  	 54 
329.48 	 0 	 button press 	 n/a 	 n/a 	 n/a 	 n/a 	 n/a  	 54 
329.82 	 0 	 button press 	 n/a 	 n/a 	 n/a 	 n/a 	 n/a  	 54 
333.45 	 4.83 	 NN 	 0.93 	 4 	 1 	 0 	 0 	 n/a 
334.38 	 0 	 button press 	 n/a 	 n/a 	 n/a 	 n/a 	 n/a  	 50 
335.76 	 0 	 button press 	 n/a 	 n/a 	 n/a 	 n/a 	 n/a  	 55 
336.23 	 0 	 button press 	 n/a 	 n/a 	 n/a 	 n/a 	 n/a  	 54 
336.44 	 0 	 button press 	 n/a 	 n/a 	 n/a 	 n/a 	 n/a  	 54 
340.04 	 4.83 	 YY 	 1.18 	 6 	 1 	 3 	 1 	 n/a 
341.22 	 0 	 button press 	 n/a 	 n/a 	 n/a 	 n/a 	 n/a  	 51 
341.87 	 0 	 button press 	 n/a 	 n/a 	 n/a 	 n/a 	 n/a  	 54 
342.15 	 0 	 button press 	 n/a 	 n/a 	 n/a 	 n/a 	 n/a  	 54 
348.63 	 4.83 	 YY 	 0.73 	 6 	 1 	 3 	 1 	 n/a 
349.36 	 0 	 button press 	 n/a 	 n/a 	 n/a 	 n/a 	 n/a  	 51 
350.56 	 0 	 button press 	 n/a 	 n/a 	 n/a 	 n/a 	 n/a  	 54 
350.83 	 0 	 button press 	 n/a 	 n/a 	 n/a 	 n/a 	 n/a  	 54 
351.11 	 0 	 button press 	 n/a 	 n/a 	 n/a 	 n/a 	 n/a  	 54 
351.36 	 0 	 button press 	 n/a 	 n/a 	 n/a 	 n/a 	 n/a  	 54 
351.61 	 0 	 button press 	 n/a 	 n/a 	 n/a 	 n/a 	 n/a  	 54 
356.52 	 4.83 	 YY 	 0.65 	 6 	 1 	 1 	 1 	 n/a 
357.17 	 0 	 button press 	 n/a 	 n/a 	 n/a 	 n/a 	 n/a  	 51 
358.57 	 0 	 button press 	 n/a 	 n/a 	 n/a 	 n/a 	 n/a  	 54 
363.83 	 4.83 	 YN 	 1.30 	 2 	 1 	 1 	 0 	 n/a 
365.13 	 0 	 button press 	 n/a 	 n/a 	 n/a 	 n/a 	 n/a  	 50 
366.26 	 0 	 button press 	 n/a 	 n/a 	 n/a 	 n/a 	 n/a  	 55 
366.54 	 0 	 button press 	 n/a 	 n/a 	 n/a 	 n/a 	 n/a  	 55 
366.79 	 0 	 button press 	 n/a 	 n/a 	 n/a 	 n/a 	 n/a  	 55 
367.04 	 0 	 button press 	 n/a 	 n/a 	 n/a 	 n/a 	 n/a  	 55 
372.19 	 4.83 	 YY 	 0.95 	 6 	 1 	 3 	 1 	 n/a 
373.13 	 0 	 button press 	 n/a 	 n/a 	 n/a 	 n/a 	 n/a  	 51 
374.10 	 0 	 button press 	 n/a 	 n/a 	 n/a 	 n/a 	 n/a  	 54 
374.67 	 0 	 button press 	 n/a 	 n/a 	 n/a 	 n/a 	 n/a  	 54 
379.83 	 4.83 	 YY 	 0.63 	 6 	 1 	 3 	 1 	 n/a 
380.46 	 0 	 button press 	 n/a 	 n/a 	 n/a 	 n/a 	 n/a  	 51 
381.67 	 0 	 button press 	 n/a 	 n/a 	 n/a 	 n/a 	 n/a  	 54 
381.91 	 0 	 button press 	 n/a 	 n/a 	 n/a 	 n/a 	 n/a  	 54 
382.17 	 0 	 button press 	 n/a 	 n/a 	 n/a 	 n/a 	 n/a  	 54 
382.41 	 0 	 button press 	 n/a 	 n/a 	 n/a 	 n/a 	 n/a  	 54 
382.66 	 0 	 button press 	 n/a 	 n/a 	 n/a 	 n/a 	 n/a  	 54 
386.25 	 4.83 	 NN 	 0.97 	 6 	 1 	 0 	 0 	 n/a 
387.22 	 0 	 button press 	 n/a 	 n/a 	 n/a 	 n/a 	 n/a  	 50 
388.05 	 0 	 button press 	 n/a 	 n/a 	 n/a 	 n/a 	 n/a  	 54 
394.24 	 4.83 	 NN 	 1.23 	 4 	 1 	 0 	 0 	 n/a 
395.48 	 0 	 button press 	 n/a 	 n/a 	 n/a 	 n/a 	 n/a  	 50 
396.46 	 0 	 button press 	 n/a 	 n/a 	 n/a 	 n/a 	 n/a  	 54 
396.74 	 0 	 button press 	 n/a 	 n/a 	 n/a 	 n/a 	 n/a  	 54 
401.22 	 4.83 	 YN 	 1.03 	 6 	 1 	 3 	 0 	 n/a 
402.25 	 0 	 button press 	 n/a 	 n/a 	 n/a 	 n/a 	 n/a  	 50 
403.30 	 0 	 button press 	 n/a 	 n/a 	 n/a 	 n/a 	 n/a  	 54 
403.58 	 0 	 button press 	 n/a 	 n/a 	 n/a 	 n/a 	 n/a  	 54 
403.85 	 0 	 button press 	 n/a 	 n/a 	 n/a 	 n/a 	 n/a  	 54 
404.13 	 0 	 button press 	 n/a 	 n/a 	 n/a 	 n/a 	 n/a  	 54 
409.89 	 4.83 	 NN 	 0.98 	 6 	 1 	 0 	 0 	 n/a 
410.87 	 0 	 button press 	 n/a 	 n/a 	 n/a 	 n/a 	 n/a  	 50 
415.83 	 4.83 	 NN 	 1.08 	 3 	 1 	 0 	 0 	 n/a 
416.92 	 0 	 button press 	 n/a 	 n/a 	 n/a 	 n/a 	 n/a  	 50 
418.93 	 0 	 button press 	 n/a 	 n/a 	 n/a 	 n/a 	 n/a  	 51 
420.20 	 0 	 button press 	 n/a 	 n/a 	 n/a 	 n/a 	 n/a  	 54 
422.11 	 4.83 	 YY 	 0.72 	 5 	 1 	 1 	 1 	 n/a 
422.83 	 0 	 button press 	 n/a 	 n/a 	 n/a 	 n/a 	 n/a  	 51 
423.98 	 0 	 button press 	 n/a 	 n/a 	 n/a 	 n/a 	 n/a  	 54 
424.78 	 0 	 button press 	 n/a 	 n/a 	 n/a 	 n/a 	 n/a  	 55 
428.57 	 4.83 	 NY 	 0.97 	 3 	 1 	 0 	 1 	 n/a 
429.54 	 0 	 button press 	 n/a 	 n/a 	 n/a 	 n/a 	 n/a  	 51 
430.73 	 0 	 button press 	 n/a 	 n/a 	 n/a 	 n/a 	 n/a  	 54 
436.16 	 4.83 	 NN 	 0.80 	 6 	 1 	 0 	 0 	 n/a 
436.96 	 0 	 button press 	 n/a 	 n/a 	 n/a 	 n/a 	 n/a  	 50 
438.08 	 0 	 button press 	 n/a 	 n/a 	 n/a 	 n/a 	 n/a  	 54 
438.31 	 0 	 button press 	 n/a 	 n/a 	 n/a 	 n/a 	 n/a  	 54 
438.67 	 0 	 button press 	 n/a 	 n/a 	 n/a 	 n/a 	 n/a  	 54 
438.94 	 0 	 button press 	 n/a 	 n/a 	 n/a 	 n/a 	 n/a  	 54 
442.54 	 4.83 	 YY 	 0.77 	 6 	 1 	 1 	 1 	 n/a 
443.30 	 0 	 button press 	 n/a 	 n/a 	 n/a 	 n/a 	 n/a  	 51 
444.42 	 0 	 button press 	 n/a 	 n/a 	 n/a 	 n/a 	 n/a  	 54 
444.68 	 0 	 button press 	 n/a 	 n/a 	 n/a 	 n/a 	 n/a  	 54 
444.97 	 0 	 button press 	 n/a 	 n/a 	 n/a 	 n/a 	 n/a  	 54 
445.27 	 0 	 button press 	 n/a 	 n/a 	 n/a 	 n/a 	 n/a  	 54 
445.52 	 0 	 button press 	 n/a 	 n/a 	 n/a 	 n/a 	 n/a  	 54 
451.01 	 4.83 	 YY 	 1.13 	 5 	 1 	 1 	 1 	 n/a 
452.14 	 0 	 button press 	 n/a 	 n/a 	 n/a 	 n/a 	 n/a  	 51 
453.56 	 0 	 button press 	 n/a 	 n/a 	 n/a 	 n/a 	 n/a  	 55 
459.70 	 4.83 	 NN 	 1.13 	 6 	 1 	 0 	 0 	 n/a 
460.83 	 0 	 button press 	 n/a 	 n/a 	 n/a 	 n/a 	 n/a  	 50 
461.88 	 0 	 button press 	 n/a 	 n/a 	 n/a 	 n/a 	 n/a  	 54 
462.11 	 0 	 button press 	 n/a 	 n/a 	 n/a 	 n/a 	 n/a  	 54 
462.35 	 0 	 button press 	 n/a 	 n/a 	 n/a 	 n/a 	 n/a  	 54 
465.98 	 4.83 	 YY 	 0.90 	 6 	 1 	 1 	 1 	 n/a 
466.88 	 0 	 button press 	 n/a 	 n/a 	 n/a 	 n/a 	 n/a  	 51 
467.81 	 0 	 button press 	 n/a 	 n/a 	 n/a 	 n/a 	 n/a  	 54 
468.06 	 0 	 button press 	 n/a 	 n/a 	 n/a 	 n/a 	 n/a  	 54 
468.31 	 0 	 button press 	 n/a 	 n/a 	 n/a 	 n/a 	 n/a  	 54 
473.58 	 4.83 	 YY 	 0.88 	 6 	 1 	 3 	 1 	 n/a 
474.47 	 0 	 button press 	 n/a 	 n/a 	 n/a 	 n/a 	 n/a  	 51 
475.38 	 0 	 button press 	 n/a 	 n/a 	 n/a 	 n/a 	 n/a  	 54 
475.63 	 0 	 button press 	 n/a 	 n/a 	 n/a 	 n/a 	 n/a  	 54 
476.08 	 0 	 button press 	 n/a 	 n/a 	 n/a 	 n/a 	 n/a  	 54 
479.31 	 4.83 	 YN 	 0.82 	 1 	 1 	 3 	 0 	 n/a 
480.13 	 0 	 button press 	 n/a 	 n/a 	 n/a 	 n/a 	 n/a  	 50 
481.14 	 0 	 button press 	 n/a 	 n/a 	 n/a 	 n/a 	 n/a  	 55 
481.46 	 0 	 button press 	 n/a 	 n/a 	 n/a 	 n/a 	 n/a  	 55 
481.73 	 0 	 button press 	 n/a 	 n/a 	 n/a 	 n/a 	 n/a  	 55 
481.97 	 0 	 button press 	 n/a 	 n/a 	 n/a 	 n/a 	 n/a  	 55 
482.17 	 0 	 button press 	 n/a 	 n/a 	 n/a 	 n/a 	 n/a  	 55 
486.79 	 4.83 	 NY 	 1.27 	 1 	 1 	 0 	 1 	 n/a 
488.05 	 0 	 button press 	 n/a 	 n/a 	 n/a 	 n/a 	 n/a  	 51 
488.92 	 0 	 button press 	 n/a 	 n/a 	 n/a 	 n/a 	 n/a  	 55 
493.10 	 4.83 	 NN 	 0.95 	 6 	 1 	 0 	 0 	 n/a 
494.04 	 0 	 button press 	 n/a 	 n/a 	 n/a 	 n/a 	 n/a  	 50 
495.03 	 0 	 button press 	 n/a 	 n/a 	 n/a 	 n/a 	 n/a  	 54 
495.66 	 0 	 button press 	 n/a 	 n/a 	 n/a 	 n/a 	 n/a  	 54 
501.24 	 4.83 	 YY 	 0.83 	 6 	 1 	 1 	 1 	 n/a 
502.07 	 0 	 button press 	 n/a 	 n/a 	 n/a 	 n/a 	 n/a  	 51 
509.68 	 4.83 	 YY 	 0.70 	 6 	 1 	 3 	 1 	 n/a 
510.38 	 0 	 button press 	 n/a 	 n/a 	 n/a 	 n/a 	 n/a  	 51 
511.67 	 0 	 button press 	 n/a 	 n/a 	 n/a 	 n/a 	 n/a  	 54 
511.89 	 0 	 button press 	 n/a 	 n/a 	 n/a 	 n/a 	 n/a  	 54 
512.16 	 0 	 button press 	 n/a 	 n/a 	 n/a 	 n/a 	 n/a  	 54 
512.41 	 0 	 button press 	 n/a 	 n/a 	 n/a 	 n/a 	 n/a  	 54 
516.37 	 4.83 	 NN 	 0.93 	 6 	 1 	 0 	 0 	 n/a 
517.30 	 0 	 button press 	 n/a 	 n/a 	 n/a 	 n/a 	 n/a  	 50 
518.48 	 0 	 button press 	 n/a 	 n/a 	 n/a 	 n/a 	 n/a  	 54 
523.06 	 4.83 	 NN 	 0.77 	 6 	 1 	 0 	 0 	 n/a 
523.83 	 0 	 button press 	 n/a 	 n/a 	 n/a 	 n/a 	 n/a  	 50 
524.64 	 0 	 button press 	 n/a 	 n/a 	 n/a 	 n/a 	 n/a  	 54 
524.92 	 0 	 button press 	 n/a 	 n/a 	 n/a 	 n/a 	 n/a  	 54 
525.17 	 0 	 button press 	 n/a 	 n/a 	 n/a 	 n/a 	 n/a  	 54 
525.44 	 0 	 button press 	 n/a 	 n/a 	 n/a 	 n/a 	 n/a  	 54 
525.69 	 0 	 button press 	 n/a 	 n/a 	 n/a 	 n/a 	 n/a  	 54 
528.97 	 4.83 	 NN 	 0.85 	 5 	 1 	 0 	 0 	 n/a 
529.82 	 0 	 button press 	 n/a 	 n/a 	 n/a 	 n/a 	 n/a  	 50 
530.88 	 0 	 button press 	 n/a 	 n/a 	 n/a 	 n/a 	 n/a  	 54 
531.15 	 0 	 button press 	 n/a 	 n/a 	 n/a 	 n/a 	 n/a  	 54 
531.44 	 0 	 button press 	 n/a 	 n/a 	 n/a 	 n/a 	 n/a  	 54 
535.91 	 4.83 	 NY 	 1.18 	 3 	 1 	 0 	 1 	 n/a 
537.09 	 0 	 button press 	 n/a 	 n/a 	 n/a 	 n/a 	 n/a  	 51 
538.51 	 0 	 button press 	 n/a 	 n/a 	 n/a 	 n/a 	 n/a  	 55 
543.17 	 4.83 	 YY 	 0.67 	 6 	 1 	 1 	 1 	 n/a 
543.84 	 0 	 button press 	 n/a 	 n/a 	 n/a 	 n/a 	 n/a  	 51 
545.02 	 0 	 button press 	 n/a 	 n/a 	 n/a 	 n/a 	 n/a  	 54 
549.15 	 4.83 	 NN 	 1.47 	 1 	 1 	 0 	 0 	 n/a 
550.61 	 0 	 button press 	 n/a 	 n/a 	 n/a 	 n/a 	 n/a  	 50 
555.51 	 4.83 	 YY 	 0.65 	 6 	 1 	 1 	 1 	 n/a 
556.16 	 0 	 button press 	 n/a 	 n/a 	 n/a 	 n/a 	 n/a  	 51 
557.44 	 0 	 button press 	 n/a 	 n/a 	 n/a 	 n/a 	 n/a  	 54 
557.69 	 0 	 button press 	 n/a 	 n/a 	 n/a 	 n/a 	 n/a  	 54 
562.45 	 4.83 	 NN 	 1.47 	 6 	 1 	 0 	 0 	 n/a 
563.91 	 0 	 button press 	 n/a 	 n/a 	 n/a 	 n/a 	 n/a  	 50 
565.05 	 0 	 button press 	 n/a 	 n/a 	 n/a 	 n/a 	 n/a  	 54 
565.36 	 0 	 button press 	 n/a 	 n/a 	 n/a 	 n/a 	 n/a  	 54 
565.60 	 0 	 button press 	 n/a 	 n/a 	 n/a 	 n/a 	 n/a  	 54 
565.85 	 0 	 button press 	 n/a 	 n/a 	 n/a 	 n/a 	 n/a  	 54 
569.66 	 4.83 	 YY 	 0.82 	 4 	 1 	 3 	 1 	 n/a 
570.47 	 0 	 button press 	 n/a 	 n/a 	 n/a 	 n/a 	 n/a  	 51 
571.80 	 0 	 button press 	 n/a 	 n/a 	 n/a 	 n/a 	 n/a  	 54 
572.02 	 0 	 button press 	 n/a 	 n/a 	 n/a 	 n/a 	 n/a  	 54 
572.25 	 0 	 button press 	 n/a 	 n/a 	 n/a 	 n/a 	 n/a  	 54 
577.78 	 4.83 	 YY 	 0.80 	 6 	 1 	 3 	 1 	 n/a 
578.58 	 0 	 button press 	 n/a 	 n/a 	 n/a 	 n/a 	 n/a  	 51 
579.63 	 0 	 button press 	 n/a 	 n/a 	 n/a 	 n/a 	 n/a  	 54 
579.89 	 0 	 button press 	 n/a 	 n/a 	 n/a 	 n/a 	 n/a  	 54 
580.18 	 0 	 button press 	 n/a 	 n/a 	 n/a 	 n/a 	 n/a  	 54 
585.65 	 4.83 	 NN 	 1.00 	 6 	 1 	 0 	 0 	 n/a 
586.65 	 0 	 button press 	 n/a 	 n/a 	 n/a 	 n/a 	 n/a  	 50 
587.75 	 0 	 button press 	 n/a 	 n/a 	 n/a 	 n/a 	 n/a  	 54 
588.00 	 0 	 button press 	 n/a 	 n/a 	 n/a 	 n/a 	 n/a  	 54 
592.10 	 4.83 	 NN 	 1.42 	 6 	 1 	 0 	 0 	 n/a 
593.51 	 0 	 button press 	 n/a 	 n/a 	 n/a 	 n/a 	 n/a  	 50 
594.01 	 0 	 button press 	 n/a 	 n/a 	 n/a 	 n/a 	 n/a  	 54 
