onset 	 duration 	 trial_type 	 response_time 	 confidence 	 detection 	 stimulus 	 response 	 key_id 
10.03 	 4.83 	 AA 	 0.88 	 1 	 0 	 3 	 3 	 n/a 
10.90 	 0 	 button press 	 n/a 	 n/a 	 n/a 	 n/a 	 n/a  	 51 
11.97 	 0 	 button press 	 n/a 	 n/a 	 n/a 	 n/a 	 n/a  	 55 
12.22 	 0 	 button press 	 n/a 	 n/a 	 n/a 	 n/a 	 n/a  	 55 
12.42 	 0 	 button press 	 n/a 	 n/a 	 n/a 	 n/a 	 n/a  	 54 
12.62 	 0 	 button press 	 n/a 	 n/a 	 n/a 	 n/a 	 n/a  	 54 
12.80 	 0 	 button press 	 n/a 	 n/a 	 n/a 	 n/a 	 n/a  	 54 
12.97 	 0 	 button press 	 n/a 	 n/a 	 n/a 	 n/a 	 n/a  	 54 
13.13 	 0 	 button press 	 n/a 	 n/a 	 n/a 	 n/a 	 n/a  	 54 
13.32 	 0 	 button press 	 n/a 	 n/a 	 n/a 	 n/a 	 n/a  	 54 
16.90 	 4.83 	 AA 	 0.57 	 6 	 0 	 3 	 3 	 n/a 
17.46 	 0 	 button press 	 n/a 	 n/a 	 n/a 	 n/a 	 n/a  	 51 
18.63 	 0 	 button press 	 n/a 	 n/a 	 n/a 	 n/a 	 n/a  	 55 
18.81 	 0 	 button press 	 n/a 	 n/a 	 n/a 	 n/a 	 n/a  	 55 
18.99 	 0 	 button press 	 n/a 	 n/a 	 n/a 	 n/a 	 n/a  	 55 
25.77 	 4.83 	 AA 	 0.57 	 5 	 0 	 3 	 3 	 n/a 
26.34 	 0 	 button press 	 n/a 	 n/a 	 n/a 	 n/a 	 n/a  	 51 
27.82 	 0 	 button press 	 n/a 	 n/a 	 n/a 	 n/a 	 n/a  	 55 
28.05 	 0 	 button press 	 n/a 	 n/a 	 n/a 	 n/a 	 n/a  	 55 
28.23 	 0 	 button press 	 n/a 	 n/a 	 n/a 	 n/a 	 n/a  	 55 
31.94 	 4.83 	 CC 	 0.72 	 6 	 0 	 1 	 1 	 n/a 
32.66 	 0 	 button press 	 n/a 	 n/a 	 n/a 	 n/a 	 n/a  	 50 
33.91 	 0 	 button press 	 n/a 	 n/a 	 n/a 	 n/a 	 n/a  	 55 
34.11 	 0 	 button press 	 n/a 	 n/a 	 n/a 	 n/a 	 n/a  	 55 
38.14 	 4.83 	 CC 	 0.75 	 6 	 0 	 1 	 1 	 n/a 
38.89 	 0 	 button press 	 n/a 	 n/a 	 n/a 	 n/a 	 n/a  	 50 
39.65 	 0 	 button press 	 n/a 	 n/a 	 n/a 	 n/a 	 n/a  	 55 
39.85 	 0 	 button press 	 n/a 	 n/a 	 n/a 	 n/a 	 n/a  	 55 
40.02 	 0 	 button press 	 n/a 	 n/a 	 n/a 	 n/a 	 n/a  	 55 
40.17 	 0 	 button press 	 n/a 	 n/a 	 n/a 	 n/a 	 n/a  	 55 
40.57 	 0 	 button press 	 n/a 	 n/a 	 n/a 	 n/a 	 n/a  	 55 
46.83 	 4.83 	 AA 	 0.88 	 2 	 0 	 3 	 3 	 n/a 
47.71 	 0 	 button press 	 n/a 	 n/a 	 n/a 	 n/a 	 n/a  	 51 
48.81 	 0 	 button press 	 n/a 	 n/a 	 n/a 	 n/a 	 n/a  	 54 
52.82 	 4.83 	 CA 	 0.67 	 1 	 0 	 1 	 3 	 n/a 
53.49 	 0 	 button press 	 n/a 	 n/a 	 n/a 	 n/a 	 n/a  	 51 
54.30 	 0 	 button press 	 n/a 	 n/a 	 n/a 	 n/a 	 n/a  	 54 
54.54 	 0 	 button press 	 n/a 	 n/a 	 n/a 	 n/a 	 n/a  	 54 
54.70 	 0 	 button press 	 n/a 	 n/a 	 n/a 	 n/a 	 n/a  	 54 
54.90 	 0 	 button press 	 n/a 	 n/a 	 n/a 	 n/a 	 n/a  	 54 
55.07 	 0 	 button press 	 n/a 	 n/a 	 n/a 	 n/a 	 n/a  	 54 
55.49 	 0 	 button press 	 n/a 	 n/a 	 n/a 	 n/a 	 n/a  	 54 
61.61 	 4.83 	 AA 	 1.38 	 1 	 0 	 3 	 3 	 n/a 
63.00 	 0 	 button press 	 n/a 	 n/a 	 n/a 	 n/a 	 n/a  	 51 
64.01 	 0 	 button press 	 n/a 	 n/a 	 n/a 	 n/a 	 n/a  	 54 
70.32 	 4.83 	 AA 	 0.72 	 3 	 0 	 3 	 3 	 n/a 
71.03 	 0 	 button press 	 n/a 	 n/a 	 n/a 	 n/a 	 n/a  	 51 
72.73 	 0 	 button press 	 n/a 	 n/a 	 n/a 	 n/a 	 n/a  	 55 
76.01 	 4.83 	 CC 	 0.77 	 2 	 0 	 1 	 1 	 n/a 
76.78 	 0 	 button press 	 n/a 	 n/a 	 n/a 	 n/a 	 n/a  	 50 
84.27 	 4.83 	 CC 	 0.63 	 2 	 0 	 1 	 1 	 n/a 
84.90 	 0 	 button press 	 n/a 	 n/a 	 n/a 	 n/a 	 n/a  	 50 
86.48 	 0 	 button press 	 n/a 	 n/a 	 n/a 	 n/a 	 n/a  	 55 
86.95 	 0 	 button press 	 n/a 	 n/a 	 n/a 	 n/a 	 n/a  	 54 
87.16 	 0 	 button press 	 n/a 	 n/a 	 n/a 	 n/a 	 n/a  	 54 
87.50 	 0 	 button press 	 n/a 	 n/a 	 n/a 	 n/a 	 n/a  	 54 
87.76 	 0 	 button press 	 n/a 	 n/a 	 n/a 	 n/a 	 n/a  	 54 
93.09 	 4.83 	 AC 	 0.67 	 2 	 0 	 3 	 1 	 n/a 
93.76 	 0 	 button press 	 n/a 	 n/a 	 n/a 	 n/a 	 n/a  	 50 
95.19 	 0 	 button press 	 n/a 	 n/a 	 n/a 	 n/a 	 n/a  	 55 
95.74 	 0 	 button press 	 n/a 	 n/a 	 n/a 	 n/a 	 n/a  	 54 
95.97 	 0 	 button press 	 n/a 	 n/a 	 n/a 	 n/a 	 n/a  	 54 
100.00 	 4.83 	 CA 	 1.13 	 1 	 0 	 1 	 3 	 n/a 
101.13 	 0 	 button press 	 n/a 	 n/a 	 n/a 	 n/a 	 n/a  	 51 
101.95 	 0 	 button press 	 n/a 	 n/a 	 n/a 	 n/a 	 n/a  	 54 
105.73 	 4.83 	 AC 	 0.77 	 1 	 0 	 3 	 1 	 n/a 
106.49 	 0 	 button press 	 n/a 	 n/a 	 n/a 	 n/a 	 n/a  	 50 
107.67 	 0 	 button press 	 n/a 	 n/a 	 n/a 	 n/a 	 n/a  	 54 
111.84 	 4.83 	 CC 	 0.60 	 6 	 0 	 1 	 1 	 n/a 
112.43 	 0 	 button press 	 n/a 	 n/a 	 n/a 	 n/a 	 n/a  	 50 
113.25 	 0 	 button press 	 n/a 	 n/a 	 n/a 	 n/a 	 n/a  	 55 
113.47 	 0 	 button press 	 n/a 	 n/a 	 n/a 	 n/a 	 n/a  	 55 
113.65 	 0 	 button press 	 n/a 	 n/a 	 n/a 	 n/a 	 n/a  	 55 
113.93 	 0 	 button press 	 n/a 	 n/a 	 n/a 	 n/a 	 n/a  	 55 
114.12 	 0 	 button press 	 n/a 	 n/a 	 n/a 	 n/a 	 n/a  	 55 
118.06 	 4.83 	 AA 	 1.07 	 3 	 0 	 3 	 3 	 n/a 
119.13 	 0 	 button press 	 n/a 	 n/a 	 n/a 	 n/a 	 n/a  	 51 
120.16 	 0 	 button press 	 n/a 	 n/a 	 n/a 	 n/a 	 n/a  	 54 
123.96 	 4.83 	 AA 	 0.83 	 1 	 0 	 3 	 3 	 n/a 
124.79 	 0 	 button press 	 n/a 	 n/a 	 n/a 	 n/a 	 n/a  	 51 
125.97 	 0 	 button press 	 n/a 	 n/a 	 n/a 	 n/a 	 n/a  	 54 
130.08 	 4.83 	 CC 	 0.57 	 2 	 0 	 1 	 1 	 n/a 
130.65 	 0 	 button press 	 n/a 	 n/a 	 n/a 	 n/a 	 n/a  	 50 
132.01 	 0 	 button press 	 n/a 	 n/a 	 n/a 	 n/a 	 n/a  	 54 
132.40 	 0 	 button press 	 n/a 	 n/a 	 n/a 	 n/a 	 n/a  	 54 
138.30 	 4.83 	 AC 	 0.65 	 2 	 0 	 3 	 1 	 n/a 
138.96 	 0 	 button press 	 n/a 	 n/a 	 n/a 	 n/a 	 n/a  	 50 
140.29 	 0 	 button press 	 n/a 	 n/a 	 n/a 	 n/a 	 n/a  	 54 
140.54 	 0 	 button press 	 n/a 	 n/a 	 n/a 	 n/a 	 n/a  	 54 
140.74 	 0 	 button press 	 n/a 	 n/a 	 n/a 	 n/a 	 n/a  	 54 
140.95 	 0 	 button press 	 n/a 	 n/a 	 n/a 	 n/a 	 n/a  	 54 
146.65 	 4.83 	 CC 	 0.60 	 2 	 0 	 1 	 1 	 n/a 
147.25 	 0 	 button press 	 n/a 	 n/a 	 n/a 	 n/a 	 n/a  	 50 
154.22 	 4.83 	 CC 	 0.80 	 5 	 0 	 1 	 1 	 n/a 
155.02 	 0 	 button press 	 n/a 	 n/a 	 n/a 	 n/a 	 n/a  	 50 
156.08 	 0 	 button press 	 n/a 	 n/a 	 n/a 	 n/a 	 n/a  	 55 
156.42 	 0 	 button press 	 n/a 	 n/a 	 n/a 	 n/a 	 n/a  	 55 
156.67 	 0 	 button press 	 n/a 	 n/a 	 n/a 	 n/a 	 n/a  	 55 
162.80 	 4.83 	 CC 	 0.63 	 3 	 0 	 1 	 1 	 n/a 
163.43 	 0 	 button press 	 n/a 	 n/a 	 n/a 	 n/a 	 n/a  	 50 
165.09 	 0 	 button press 	 n/a 	 n/a 	 n/a 	 n/a 	 n/a  	 55 
165.56 	 0 	 button press 	 n/a 	 n/a 	 n/a 	 n/a 	 n/a  	 54 
165.76 	 0 	 button press 	 n/a 	 n/a 	 n/a 	 n/a 	 n/a  	 54 
171.52 	 4.83 	 CC 	 0.57 	 6 	 0 	 1 	 1 	 n/a 
172.08 	 0 	 button press 	 n/a 	 n/a 	 n/a 	 n/a 	 n/a  	 50 
173.20 	 0 	 button press 	 n/a 	 n/a 	 n/a 	 n/a 	 n/a  	 55 
173.41 	 0 	 button press 	 n/a 	 n/a 	 n/a 	 n/a 	 n/a  	 55 
173.56 	 0 	 button press 	 n/a 	 n/a 	 n/a 	 n/a 	 n/a  	 55 
173.85 	 0 	 button press 	 n/a 	 n/a 	 n/a 	 n/a 	 n/a  	 55 
179.61 	 4.83 	 AC 	 0.83 	 1 	 0 	 3 	 1 	 n/a 
180.44 	 0 	 button press 	 n/a 	 n/a 	 n/a 	 n/a 	 n/a  	 50 
181.14 	 0 	 button press 	 n/a 	 n/a 	 n/a 	 n/a 	 n/a  	 54 
181.39 	 0 	 button press 	 n/a 	 n/a 	 n/a 	 n/a 	 n/a  	 54 
187.78 	 4.83 	 CC 	 0.55 	 1 	 0 	 1 	 1 	 n/a 
188.33 	 0 	 button press 	 n/a 	 n/a 	 n/a 	 n/a 	 n/a  	 50 
189.80 	 0 	 button press 	 n/a 	 n/a 	 n/a 	 n/a 	 n/a  	 54 
190.00 	 0 	 button press 	 n/a 	 n/a 	 n/a 	 n/a 	 n/a  	 54 
193.49 	 4.83 	 AA 	 0.72 	 2 	 0 	 3 	 3 	 n/a 
194.21 	 0 	 button press 	 n/a 	 n/a 	 n/a 	 n/a 	 n/a  	 51 
195.37 	 0 	 button press 	 n/a 	 n/a 	 n/a 	 n/a 	 n/a  	 54 
195.79 	 0 	 button press 	 n/a 	 n/a 	 n/a 	 n/a 	 n/a  	 54 
195.95 	 0 	 button press 	 n/a 	 n/a 	 n/a 	 n/a 	 n/a  	 54 
196.16 	 0 	 button press 	 n/a 	 n/a 	 n/a 	 n/a 	 n/a  	 54 
200.90 	 4.83 	 CC 	 0.62 	 6 	 0 	 1 	 1 	 n/a 
201.52 	 0 	 button press 	 n/a 	 n/a 	 n/a 	 n/a 	 n/a  	 50 
202.92 	 0 	 button press 	 n/a 	 n/a 	 n/a 	 n/a 	 n/a  	 54 
203.53 	 0 	 button press 	 n/a 	 n/a 	 n/a 	 n/a 	 n/a  	 55 
203.78 	 0 	 button press 	 n/a 	 n/a 	 n/a 	 n/a 	 n/a  	 55 
203.96 	 0 	 button press 	 n/a 	 n/a 	 n/a 	 n/a 	 n/a  	 55 
204.11 	 0 	 button press 	 n/a 	 n/a 	 n/a 	 n/a 	 n/a  	 55 
207.74 	 4.83 	 AC 	 0.72 	 5 	 0 	 3 	 1 	 n/a 
208.46 	 0 	 button press 	 n/a 	 n/a 	 n/a 	 n/a 	 n/a  	 50 
209.61 	 0 	 button press 	 n/a 	 n/a 	 n/a 	 n/a 	 n/a  	 55 
209.77 	 0 	 button press 	 n/a 	 n/a 	 n/a 	 n/a 	 n/a  	 55 
209.94 	 0 	 button press 	 n/a 	 n/a 	 n/a 	 n/a 	 n/a  	 55 
213.80 	 4.83 	 AC 	 0.85 	 4 	 0 	 3 	 1 	 n/a 
214.65 	 0 	 button press 	 n/a 	 n/a 	 n/a 	 n/a 	 n/a  	 50 
216.02 	 0 	 button press 	 n/a 	 n/a 	 n/a 	 n/a 	 n/a  	 54 
219.66 	 4.83 	 CC 	 0.60 	 3 	 0 	 1 	 1 	 n/a 
220.26 	 0 	 button press 	 n/a 	 n/a 	 n/a 	 n/a 	 n/a  	 50 
222.07 	 0 	 button press 	 n/a 	 n/a 	 n/a 	 n/a 	 n/a  	 54 
222.52 	 0 	 button press 	 n/a 	 n/a 	 n/a 	 n/a 	 n/a  	 54 
226.27 	 4.83 	 CC 	 0.61 	 6 	 0 	 1 	 1 	 n/a 
226.89 	 0 	 button press 	 n/a 	 n/a 	 n/a 	 n/a 	 n/a  	 50 
227.84 	 0 	 button press 	 n/a 	 n/a 	 n/a 	 n/a 	 n/a  	 55 
228.09 	 0 	 button press 	 n/a 	 n/a 	 n/a 	 n/a 	 n/a  	 55 
233.78 	 4.83 	 CC 	 0.77 	 4 	 0 	 1 	 1 	 n/a 
234.55 	 0 	 button press 	 n/a 	 n/a 	 n/a 	 n/a 	 n/a  	 50 
235.81 	 0 	 button press 	 n/a 	 n/a 	 n/a 	 n/a 	 n/a  	 55 
236.01 	 0 	 button press 	 n/a 	 n/a 	 n/a 	 n/a 	 n/a  	 55 
236.68 	 0 	 button press 	 n/a 	 n/a 	 n/a 	 n/a 	 n/a  	 54 
237.34 	 0 	 button press 	 n/a 	 n/a 	 n/a 	 n/a 	 n/a  	 54 
241.05 	 4.83 	 AC 	 0.80 	 4 	 0 	 3 	 1 	 n/a 
241.85 	 0 	 button press 	 n/a 	 n/a 	 n/a 	 n/a 	 n/a  	 50 
243.30 	 0 	 button press 	 n/a 	 n/a 	 n/a 	 n/a 	 n/a  	 55 
248.41 	 4.83 	 AA 	 0.70 	 5 	 0 	 3 	 3 	 n/a 
249.11 	 0 	 button press 	 n/a 	 n/a 	 n/a 	 n/a 	 n/a  	 51 
250.64 	 0 	 button press 	 n/a 	 n/a 	 n/a 	 n/a 	 n/a  	 54 
251.22 	 0 	 button press 	 n/a 	 n/a 	 n/a 	 n/a 	 n/a  	 55 
251.47 	 0 	 button press 	 n/a 	 n/a 	 n/a 	 n/a 	 n/a  	 55 
255.69 	 4.83 	 CA 	 0.92 	 1 	 0 	 1 	 3 	 n/a 
256.60 	 0 	 button press 	 n/a 	 n/a 	 n/a 	 n/a 	 n/a  	 51 
257.37 	 0 	 button press 	 n/a 	 n/a 	 n/a 	 n/a 	 n/a  	 54 
257.64 	 0 	 button press 	 n/a 	 n/a 	 n/a 	 n/a 	 n/a  	 54 
257.83 	 0 	 button press 	 n/a 	 n/a 	 n/a 	 n/a 	 n/a  	 54 
258.05 	 0 	 button press 	 n/a 	 n/a 	 n/a 	 n/a 	 n/a  	 54 
258.22 	 0 	 button press 	 n/a 	 n/a 	 n/a 	 n/a 	 n/a  	 54 
263.61 	 4.83 	 CC 	 0.57 	 6 	 0 	 1 	 1 	 n/a 
264.18 	 0 	 button press 	 n/a 	 n/a 	 n/a 	 n/a 	 n/a  	 50 
265.11 	 0 	 button press 	 n/a 	 n/a 	 n/a 	 n/a 	 n/a  	 55 
265.36 	 0 	 button press 	 n/a 	 n/a 	 n/a 	 n/a 	 n/a  	 55 
265.56 	 0 	 button press 	 n/a 	 n/a 	 n/a 	 n/a 	 n/a  	 55 
265.76 	 0 	 button press 	 n/a 	 n/a 	 n/a 	 n/a 	 n/a  	 55 
265.96 	 0 	 button press 	 n/a 	 n/a 	 n/a 	 n/a 	 n/a  	 55 
271.89 	 4.83 	 AC 	 1.15 	 4 	 0 	 3 	 1 	 n/a 
273.03 	 0 	 button press 	 n/a 	 n/a 	 n/a 	 n/a 	 n/a  	 50 
274.01 	 0 	 button press 	 n/a 	 n/a 	 n/a 	 n/a 	 n/a  	 54 
274.30 	 0 	 button press 	 n/a 	 n/a 	 n/a 	 n/a 	 n/a  	 54 
279.31 	 4.83 	 CC 	 0.77 	 3 	 0 	 1 	 1 	 n/a 
280.08 	 0 	 button press 	 n/a 	 n/a 	 n/a 	 n/a 	 n/a  	 50 
281.36 	 0 	 button press 	 n/a 	 n/a 	 n/a 	 n/a 	 n/a  	 54 
281.56 	 0 	 button press 	 n/a 	 n/a 	 n/a 	 n/a 	 n/a  	 54 
281.77 	 0 	 button press 	 n/a 	 n/a 	 n/a 	 n/a 	 n/a  	 54 
287.85 	 4.83 	 AA 	 1.04 	 4 	 0 	 3 	 3 	 n/a 
288.88 	 0 	 button press 	 n/a 	 n/a 	 n/a 	 n/a 	 n/a  	 51 
289.90 	 0 	 button press 	 n/a 	 n/a 	 n/a 	 n/a 	 n/a  	 55 
290.26 	 0 	 button press 	 n/a 	 n/a 	 n/a 	 n/a 	 n/a  	 55 
295.37 	 4.83 	 AA 	 0.77 	 3 	 0 	 3 	 3 	 n/a 
296.14 	 0 	 button press 	 n/a 	 n/a 	 n/a 	 n/a 	 n/a  	 51 
297.50 	 0 	 button press 	 n/a 	 n/a 	 n/a 	 n/a 	 n/a  	 54 
297.85 	 0 	 button press 	 n/a 	 n/a 	 n/a 	 n/a 	 n/a  	 54 
298.07 	 0 	 button press 	 n/a 	 n/a 	 n/a 	 n/a 	 n/a  	 54 
298.32 	 0 	 button press 	 n/a 	 n/a 	 n/a 	 n/a 	 n/a  	 54 
298.80 	 0 	 button press 	 n/a 	 n/a 	 n/a 	 n/a 	 n/a  	 55 
312.47 	 4.83 	 YN 	 1.01 	 1 	 1 	 3 	 0 	 n/a 
313.49 	 0 	 button press 	 n/a 	 n/a 	 n/a 	 n/a 	 n/a  	 50 
314.50 	 0 	 button press 	 n/a 	 n/a 	 n/a 	 n/a 	 n/a  	 54 
314.75 	 0 	 button press 	 n/a 	 n/a 	 n/a 	 n/a 	 n/a  	 54 
314.95 	 0 	 button press 	 n/a 	 n/a 	 n/a 	 n/a 	 n/a  	 54 
318.45 	 4.83 	 YY 	 0.65 	 6 	 1 	 3 	 1 	 n/a 
319.10 	 0 	 button press 	 n/a 	 n/a 	 n/a 	 n/a 	 n/a  	 51 
319.90 	 0 	 button press 	 n/a 	 n/a 	 n/a 	 n/a 	 n/a  	 55 
320.13 	 0 	 button press 	 n/a 	 n/a 	 n/a 	 n/a 	 n/a  	 55 
320.31 	 0 	 button press 	 n/a 	 n/a 	 n/a 	 n/a 	 n/a  	 55 
320.75 	 0 	 button press 	 n/a 	 n/a 	 n/a 	 n/a 	 n/a  	 55 
324.14 	 4.83 	 YY 	 0.66 	 6 	 1 	 3 	 1 	 n/a 
324.81 	 0 	 button press 	 n/a 	 n/a 	 n/a 	 n/a 	 n/a  	 51 
325.49 	 0 	 button press 	 n/a 	 n/a 	 n/a 	 n/a 	 n/a  	 55 
325.74 	 0 	 button press 	 n/a 	 n/a 	 n/a 	 n/a 	 n/a  	 55 
326.09 	 0 	 button press 	 n/a 	 n/a 	 n/a 	 n/a 	 n/a  	 55 
326.31 	 0 	 button press 	 n/a 	 n/a 	 n/a 	 n/a 	 n/a  	 55 
326.74 	 0 	 button press 	 n/a 	 n/a 	 n/a 	 n/a 	 n/a  	 55 
331.73 	 4.83 	 NN 	 0.87 	 6 	 1 	 0 	 0 	 n/a 
332.60 	 0 	 button press 	 n/a 	 n/a 	 n/a 	 n/a 	 n/a  	 50 
333.48 	 0 	 button press 	 n/a 	 n/a 	 n/a 	 n/a 	 n/a  	 55 
334.06 	 0 	 button press 	 n/a 	 n/a 	 n/a 	 n/a 	 n/a  	 54 
334.91 	 0 	 button press 	 n/a 	 n/a 	 n/a 	 n/a 	 n/a  	 55 
338.61 	 4.83 	 YY 	 0.84 	 2 	 1 	 1 	 1 	 n/a 
339.44 	 0 	 button press 	 n/a 	 n/a 	 n/a 	 n/a 	 n/a  	 51 
341.55 	 0 	 button press 	 n/a 	 n/a 	 n/a 	 n/a 	 n/a  	 54 
347.11 	 4.83 	 YY 	 1.15 	 3 	 1 	 3 	 1 	 n/a 
348.26 	 0 	 button press 	 n/a 	 n/a 	 n/a 	 n/a 	 n/a  	 51 
349.49 	 0 	 button press 	 n/a 	 n/a 	 n/a 	 n/a 	 n/a  	 55 
355.21 	 4.83 	 YN 	 0.77 	 4 	 1 	 3 	 0 	 n/a 
355.97 	 0 	 button press 	 n/a 	 n/a 	 n/a 	 n/a 	 n/a  	 50 
357.19 	 0 	 button press 	 n/a 	 n/a 	 n/a 	 n/a 	 n/a  	 54 
363.96 	 4.83 	 YY 	 0.88 	 6 	 1 	 1 	 1 	 n/a 
364.84 	 0 	 button press 	 n/a 	 n/a 	 n/a 	 n/a 	 n/a  	 51 
365.98 	 0 	 button press 	 n/a 	 n/a 	 n/a 	 n/a 	 n/a  	 55 
369.70 	 4.83 	 YY 	 1.10 	 1 	 1 	 1 	 1 	 n/a 
370.80 	 0 	 button press 	 n/a 	 n/a 	 n/a 	 n/a 	 n/a  	 51 
371.59 	 0 	 button press 	 n/a 	 n/a 	 n/a 	 n/a 	 n/a  	 54 
371.99 	 0 	 button press 	 n/a 	 n/a 	 n/a 	 n/a 	 n/a  	 54 
372.32 	 0 	 button press 	 n/a 	 n/a 	 n/a 	 n/a 	 n/a  	 54 
373.96 	 0 	 button press 	 n/a 	 n/a 	 n/a 	 n/a 	 n/a  	 55 
378.13 	 4.83 	 YY 	 0.87 	 2 	 1 	 3 	 1 	 n/a 
378.99 	 0 	 button press 	 n/a 	 n/a 	 n/a 	 n/a 	 n/a  	 51 
380.49 	 0 	 button press 	 n/a 	 n/a 	 n/a 	 n/a 	 n/a  	 54 
386.54 	 4.83 	 NN 	 0.81 	 5 	 1 	 0 	 0 	 n/a 
387.35 	 0 	 button press 	 n/a 	 n/a 	 n/a 	 n/a 	 n/a  	 50 
388.63 	 0 	 button press 	 n/a 	 n/a 	 n/a 	 n/a 	 n/a  	 55 
388.93 	 0 	 button press 	 n/a 	 n/a 	 n/a 	 n/a 	 n/a  	 55 
389.15 	 0 	 button press 	 n/a 	 n/a 	 n/a 	 n/a 	 n/a  	 55 
389.40 	 0 	 button press 	 n/a 	 n/a 	 n/a 	 n/a 	 n/a  	 55 
394.86 	 4.83 	 NN 	 0.75 	 6 	 1 	 0 	 0 	 n/a 
395.61 	 0 	 button press 	 n/a 	 n/a 	 n/a 	 n/a 	 n/a  	 50 
397.49 	 0 	 button press 	 n/a 	 n/a 	 n/a 	 n/a 	 n/a  	 55 
403.37 	 4.83 	 NN 	 0.70 	 6 	 1 	 0 	 0 	 n/a 
404.07 	 0 	 button press 	 n/a 	 n/a 	 n/a 	 n/a 	 n/a  	 50 
404.75 	 0 	 button press 	 n/a 	 n/a 	 n/a 	 n/a 	 n/a  	 55 
405.05 	 0 	 button press 	 n/a 	 n/a 	 n/a 	 n/a 	 n/a  	 55 
405.28 	 0 	 button press 	 n/a 	 n/a 	 n/a 	 n/a 	 n/a  	 55 
412.09 	 4.83 	 NN 	 0.68 	 5 	 1 	 0 	 0 	 n/a 
412.77 	 0 	 button press 	 n/a 	 n/a 	 n/a 	 n/a 	 n/a  	 50 
414.49 	 0 	 button press 	 n/a 	 n/a 	 n/a 	 n/a 	 n/a  	 54 
418.28 	 4.83 	 NN 	 0.70 	 5 	 1 	 0 	 0 	 n/a 
418.98 	 0 	 button press 	 n/a 	 n/a 	 n/a 	 n/a 	 n/a  	 50 
420.23 	 0 	 button press 	 n/a 	 n/a 	 n/a 	 n/a 	 n/a  	 55 
420.66 	 0 	 button press 	 n/a 	 n/a 	 n/a 	 n/a 	 n/a  	 55 
420.88 	 0 	 button press 	 n/a 	 n/a 	 n/a 	 n/a 	 n/a  	 55 
421.11 	 0 	 button press 	 n/a 	 n/a 	 n/a 	 n/a 	 n/a  	 55 
426.97 	 4.83 	 NY 	 1.03 	 1 	 1 	 0 	 1 	 n/a 
428.00 	 0 	 button press 	 n/a 	 n/a 	 n/a 	 n/a 	 n/a  	 51 
428.99 	 0 	 button press 	 n/a 	 n/a 	 n/a 	 n/a 	 n/a  	 54 
429.70 	 0 	 button press 	 n/a 	 n/a 	 n/a 	 n/a 	 n/a  	 54 
435.51 	 4.83 	 YY 	 0.80 	 6 	 1 	 3 	 1 	 n/a 
436.31 	 0 	 button press 	 n/a 	 n/a 	 n/a 	 n/a 	 n/a  	 51 
437.53 	 0 	 button press 	 n/a 	 n/a 	 n/a 	 n/a 	 n/a  	 55 
437.79 	 0 	 button press 	 n/a 	 n/a 	 n/a 	 n/a 	 n/a  	 55 
438.14 	 0 	 button press 	 n/a 	 n/a 	 n/a 	 n/a 	 n/a  	 55 
438.44 	 0 	 button press 	 n/a 	 n/a 	 n/a 	 n/a 	 n/a  	 55 
441.75 	 4.83 	 YY 	 0.82 	 6 	 1 	 1 	 1 	 n/a 
442.57 	 0 	 button press 	 n/a 	 n/a 	 n/a 	 n/a 	 n/a  	 51 
444.02 	 0 	 button press 	 n/a 	 n/a 	 n/a 	 n/a 	 n/a  	 54 
444.64 	 0 	 button press 	 n/a 	 n/a 	 n/a 	 n/a 	 n/a  	 55 
448.78 	 4.83 	 NN 	 0.95 	 5 	 1 	 0 	 0 	 n/a 
449.73 	 0 	 button press 	 n/a 	 n/a 	 n/a 	 n/a 	 n/a  	 50 
450.54 	 0 	 button press 	 n/a 	 n/a 	 n/a 	 n/a 	 n/a  	 55 
450.86 	 0 	 button press 	 n/a 	 n/a 	 n/a 	 n/a 	 n/a  	 55 
456.19 	 4.83 	 YN 	 0.75 	 1 	 1 	 3 	 0 	 n/a 
456.94 	 0 	 button press 	 n/a 	 n/a 	 n/a 	 n/a 	 n/a  	 50 
457.84 	 0 	 button press 	 n/a 	 n/a 	 n/a 	 n/a 	 n/a  	 54 
458.17 	 0 	 button press 	 n/a 	 n/a 	 n/a 	 n/a 	 n/a  	 54 
464.61 	 4.83 	 YY 	 0.94 	 2 	 1 	 1 	 1 	 n/a 
465.55 	 0 	 button press 	 n/a 	 n/a 	 n/a 	 n/a 	 n/a  	 51 
467.33 	 0 	 button press 	 n/a 	 n/a 	 n/a 	 n/a 	 n/a  	 54 
467.56 	 0 	 button press 	 n/a 	 n/a 	 n/a 	 n/a 	 n/a  	 54 
470.46 	 4.83 	 missed_trial 	 n/a 	 n/a 	 1 	 0 	 n/a 	 n/a 
472.02 	 0 	 button press 	 n/a 	 n/a 	 n/a 	 n/a 	 n/a  	 50 
476.95 	 4.83 	 YY 	 0.56 	 6 	 1 	 1 	 1 	 n/a 
477.51 	 0 	 button press 	 n/a 	 n/a 	 n/a 	 n/a 	 n/a  	 51 
478.51 	 0 	 button press 	 n/a 	 n/a 	 n/a 	 n/a 	 n/a  	 55 
478.80 	 0 	 button press 	 n/a 	 n/a 	 n/a 	 n/a 	 n/a  	 55 
479.03 	 0 	 button press 	 n/a 	 n/a 	 n/a 	 n/a 	 n/a  	 55 
479.26 	 0 	 button press 	 n/a 	 n/a 	 n/a 	 n/a 	 n/a  	 55 
485.07 	 4.83 	 YN 	 0.87 	 2 	 1 	 3 	 0 	 n/a 
485.94 	 0 	 button press 	 n/a 	 n/a 	 n/a 	 n/a 	 n/a  	 50 
487.02 	 0 	 button press 	 n/a 	 n/a 	 n/a 	 n/a 	 n/a  	 54 
488.63 	 0 	 button press 	 n/a 	 n/a 	 n/a 	 n/a 	 n/a  	 55 
491.43 	 4.83 	 NN 	 0.73 	 2 	 1 	 0 	 0 	 n/a 
492.16 	 0 	 button press 	 n/a 	 n/a 	 n/a 	 n/a 	 n/a  	 50 
493.53 	 0 	 button press 	 n/a 	 n/a 	 n/a 	 n/a 	 n/a  	 55 
493.96 	 0 	 button press 	 n/a 	 n/a 	 n/a 	 n/a 	 n/a  	 54 
494.14 	 0 	 button press 	 n/a 	 n/a 	 n/a 	 n/a 	 n/a  	 54 
494.64 	 0 	 button press 	 n/a 	 n/a 	 n/a 	 n/a 	 n/a  	 54 
494.89 	 0 	 button press 	 n/a 	 n/a 	 n/a 	 n/a 	 n/a  	 54 
499.95 	 4.83 	 NN 	 1.22 	 2 	 1 	 0 	 0 	 n/a 
501.17 	 0 	 button press 	 n/a 	 n/a 	 n/a 	 n/a 	 n/a  	 50 
502.38 	 0 	 button press 	 n/a 	 n/a 	 n/a 	 n/a 	 n/a  	 54 
505.61 	 4.83 	 YY 	 0.77 	 3 	 1 	 3 	 1 	 n/a 
506.38 	 0 	 button press 	 n/a 	 n/a 	 n/a 	 n/a 	 n/a  	 51 
507.86 	 0 	 button press 	 n/a 	 n/a 	 n/a 	 n/a 	 n/a  	 54 
511.94 	 4.83 	 YY 	 0.55 	 6 	 1 	 1 	 1 	 n/a 
512.49 	 0 	 button press 	 n/a 	 n/a 	 n/a 	 n/a 	 n/a  	 51 
513.12 	 0 	 button press 	 n/a 	 n/a 	 n/a 	 n/a 	 n/a  	 55 
513.32 	 0 	 button press 	 n/a 	 n/a 	 n/a 	 n/a 	 n/a  	 55 
513.55 	 0 	 button press 	 n/a 	 n/a 	 n/a 	 n/a 	 n/a  	 55 
513.90 	 0 	 button press 	 n/a 	 n/a 	 n/a 	 n/a 	 n/a  	 55 
514.14 	 0 	 button press 	 n/a 	 n/a 	 n/a 	 n/a 	 n/a  	 55 
514.44 	 0 	 button press 	 n/a 	 n/a 	 n/a 	 n/a 	 n/a  	 55 
514.74 	 0 	 button press 	 n/a 	 n/a 	 n/a 	 n/a 	 n/a  	 55 
519.60 	 4.83 	 NN 	 0.80 	 6 	 1 	 0 	 0 	 n/a 
520.40 	 0 	 button press 	 n/a 	 n/a 	 n/a 	 n/a 	 n/a  	 50 
521.46 	 0 	 button press 	 n/a 	 n/a 	 n/a 	 n/a 	 n/a  	 55 
525.79 	 4.83 	 NN 	 1.00 	 3 	 1 	 0 	 0 	 n/a 
526.79 	 0 	 button press 	 n/a 	 n/a 	 n/a 	 n/a 	 n/a  	 50 
528.22 	 0 	 button press 	 n/a 	 n/a 	 n/a 	 n/a 	 n/a  	 55 
528.67 	 0 	 button press 	 n/a 	 n/a 	 n/a 	 n/a 	 n/a  	 55 
534.56 	 4.83 	 YN 	 1.07 	 2 	 1 	 1 	 0 	 n/a 
535.63 	 0 	 button press 	 n/a 	 n/a 	 n/a 	 n/a 	 n/a  	 50 
536.80 	 0 	 button press 	 n/a 	 n/a 	 n/a 	 n/a 	 n/a  	 54 
537.19 	 0 	 button press 	 n/a 	 n/a 	 n/a 	 n/a 	 n/a  	 54 
537.43 	 0 	 button press 	 n/a 	 n/a 	 n/a 	 n/a 	 n/a  	 54 
542.62 	 4.83 	 NN 	 0.67 	 2 	 1 	 0 	 0 	 n/a 
543.29 	 0 	 button press 	 n/a 	 n/a 	 n/a 	 n/a 	 n/a  	 50 
549.53 	 4.83 	 NN 	 0.88 	 6 	 1 	 0 	 0 	 n/a 
550.41 	 0 	 button press 	 n/a 	 n/a 	 n/a 	 n/a 	 n/a  	 50 
551.06 	 0 	 button press 	 n/a 	 n/a 	 n/a 	 n/a 	 n/a  	 55 
551.30 	 0 	 button press 	 n/a 	 n/a 	 n/a 	 n/a 	 n/a  	 55 
551.48 	 0 	 button press 	 n/a 	 n/a 	 n/a 	 n/a 	 n/a  	 55 
551.85 	 0 	 button press 	 n/a 	 n/a 	 n/a 	 n/a 	 n/a  	 55 
552.11 	 0 	 button press 	 n/a 	 n/a 	 n/a 	 n/a 	 n/a  	 55 
555.31 	 4.83 	 YY 	 0.78 	 3 	 1 	 1 	 1 	 n/a 
556.09 	 0 	 button press 	 n/a 	 n/a 	 n/a 	 n/a 	 n/a  	 51 
556.89 	 0 	 button press 	 n/a 	 n/a 	 n/a 	 n/a 	 n/a  	 54 
557.15 	 0 	 button press 	 n/a 	 n/a 	 n/a 	 n/a 	 n/a  	 54 
557.45 	 0 	 button press 	 n/a 	 n/a 	 n/a 	 n/a 	 n/a  	 55 
558.87 	 0 	 button press 	 n/a 	 n/a 	 n/a 	 n/a 	 n/a  	 55 
562.40 	 4.83 	 NN 	 0.77 	 3 	 1 	 0 	 0 	 n/a 
563.17 	 0 	 button press 	 n/a 	 n/a 	 n/a 	 n/a 	 n/a  	 50 
566.04 	 0 	 button press 	 n/a 	 n/a 	 n/a 	 n/a 	 n/a  	 54 
568.04 	 4.83 	 NN 	 0.80 	 6 	 1 	 0 	 0 	 n/a 
568.84 	 0 	 button press 	 n/a 	 n/a 	 n/a 	 n/a 	 n/a  	 50 
569.41 	 0 	 button press 	 n/a 	 n/a 	 n/a 	 n/a 	 n/a  	 55 
569.66 	 0 	 button press 	 n/a 	 n/a 	 n/a 	 n/a 	 n/a  	 55 
569.86 	 0 	 button press 	 n/a 	 n/a 	 n/a 	 n/a 	 n/a  	 55 
570.34 	 0 	 button press 	 n/a 	 n/a 	 n/a 	 n/a 	 n/a  	 55 
570.52 	 0 	 button press 	 n/a 	 n/a 	 n/a 	 n/a 	 n/a  	 55 
570.72 	 0 	 button press 	 n/a 	 n/a 	 n/a 	 n/a 	 n/a  	 55 
576.15 	 4.83 	 NN 	 0.68 	 6 	 1 	 0 	 0 	 n/a 
576.83 	 0 	 button press 	 n/a 	 n/a 	 n/a 	 n/a 	 n/a  	 50 
577.76 	 0 	 button press 	 n/a 	 n/a 	 n/a 	 n/a 	 n/a  	 55 
578.23 	 0 	 button press 	 n/a 	 n/a 	 n/a 	 n/a 	 n/a  	 55 
578.40 	 0 	 button press 	 n/a 	 n/a 	 n/a 	 n/a 	 n/a  	 55 
582.41 	 4.83 	 NN 	 0.88 	 6 	 1 	 0 	 0 	 n/a 
583.29 	 0 	 button press 	 n/a 	 n/a 	 n/a 	 n/a 	 n/a  	 50 
584.12 	 0 	 button press 	 n/a 	 n/a 	 n/a 	 n/a 	 n/a  	 55 
588.40 	 4.83 	 YY 	 1.35 	 1 	 1 	 1 	 1 	 n/a 
589.75 	 0 	 button press 	 n/a 	 n/a 	 n/a 	 n/a 	 n/a  	 51 
590.80 	 0 	 button press 	 n/a 	 n/a 	 n/a 	 n/a 	 n/a  	 54 
591.02 	 0 	 button press 	 n/a 	 n/a 	 n/a 	 n/a 	 n/a  	 54 
591.17 	 0 	 button press 	 n/a 	 n/a 	 n/a 	 n/a 	 n/a  	 54 
591.35 	 0 	 button press 	 n/a 	 n/a 	 n/a 	 n/a 	 n/a  	 54 
595.51 	 4.83 	 NN 	 0.85 	 4 	 1 	 0 	 0 	 n/a 
596.36 	 0 	 button press 	 n/a 	 n/a 	 n/a 	 n/a 	 n/a  	 50 
597.43 	 0 	 button press 	 n/a 	 n/a 	 n/a 	 n/a 	 n/a  	 55 
597.81 	 0 	 button press 	 n/a 	 n/a 	 n/a 	 n/a 	 n/a  	 54 
597.99 	 0 	 button press 	 n/a 	 n/a 	 n/a 	 n/a 	 n/a  	 54 
