onset	duration	trial_type	response_time	confidence	detection	stimulus	response	key_id
10.03	4.83	NN	1.19	1	1	0	0	n/a
11.22	0	button press	n/a	n/a	n/a	n/a	n/a	50
12.17	0	button press	n/a	n/a	n/a	n/a	n/a	55
12.50	0	button press	n/a	n/a	n/a	n/a	n/a	55
12.80	0	button press	n/a	n/a	n/a	n/a	n/a	55
17.70	4.83	YN	0.85	5	1	3	0	n/a
18.55	0	button press	n/a	n/a	n/a	n/a	n/a	50
19.86	0	button press	n/a	n/a	n/a	n/a	n/a	54
23.89	4.83	YY	0.95	4	1	1	1	n/a
24.84	0	button press	n/a	n/a	n/a	n/a	n/a	51
29.75	4.83	NY	1.25	5	1	0	1	n/a
31.00	0	button press	n/a	n/a	n/a	n/a	n/a	51
32.25	0	button press	n/a	n/a	n/a	n/a	n/a	54
37.36	4.83	NN	1.03	6	1	0	0	n/a
38.39	0	button press	n/a	n/a	n/a	n/a	n/a	50
39.35	0	button press	n/a	n/a	n/a	n/a	n/a	54
39.62	0	button press	n/a	n/a	n/a	n/a	n/a	54
39.85	0	button press	n/a	n/a	n/a	n/a	n/a	54
40.15	0	button press	n/a	n/a	n/a	n/a	n/a	54
45.63	4.83	NN	1.02	2	1	0	0	n/a
46.65	0	button press	n/a	n/a	n/a	n/a	n/a	50
48.38	0	button press	n/a	n/a	n/a	n/a	n/a	55
51.32	4.83	YN	1.25	1	1	1	0	n/a
52.57	0	button press	n/a	n/a	n/a	n/a	n/a	50
53.42	0	button press	n/a	n/a	n/a	n/a	n/a	55
53.67	0	button press	n/a	n/a	n/a	n/a	n/a	55
53.89	0	button press	n/a	n/a	n/a	n/a	n/a	55
59.10	4.83	YN	0.88	6	1	3	0	n/a
59.98	0	button press	n/a	n/a	n/a	n/a	n/a	50
66.21	4.83	YY	0.82	4	1	3	1	n/a
67.02	0	button press	n/a	n/a	n/a	n/a	n/a	51
68.60	0	button press	n/a	n/a	n/a	n/a	n/a	55
72.62	4.83	YN	0.95	5	1	3	0	n/a
73.56	0	button press	n/a	n/a	n/a	n/a	n/a	50
79.46	4.83	YY	0.98	5	1	3	1	n/a
80.44	0	button press	n/a	n/a	n/a	n/a	n/a	51
81.56	0	button press	n/a	n/a	n/a	n/a	n/a	54
81.84	0	button press	n/a	n/a	n/a	n/a	n/a	54
82.20	0	button press	n/a	n/a	n/a	n/a	n/a	54
85.08	4.83	YY	0.83	6	1	1	1	n/a
85.92	0	button press	n/a	n/a	n/a	n/a	n/a	51
87.71	0	button press	n/a	n/a	n/a	n/a	n/a	54
90.93	4.83	YY	0.78	6	1	3	1	n/a
91.71	0	button press	n/a	n/a	n/a	n/a	n/a	51
93.03	0	button press	n/a	n/a	n/a	n/a	n/a	54
93.29	0	button press	n/a	n/a	n/a	n/a	n/a	54
99.40	4.83	NN	0.85	6	1	0	0	n/a
100.25	0	button press	n/a	n/a	n/a	n/a	n/a	50
101.60	0	button press	n/a	n/a	n/a	n/a	n/a	54
101.85	0	button press	n/a	n/a	n/a	n/a	n/a	54
102.08	0	button press	n/a	n/a	n/a	n/a	n/a	54
102.30	0	button press	n/a	n/a	n/a	n/a	n/a	54
102.51	0	button press	n/a	n/a	n/a	n/a	n/a	54
106.26	4.83	NN	0.95	6	1	0	0	n/a
107.21	0	button press	n/a	n/a	n/a	n/a	n/a	50
108.22	0	button press	n/a	n/a	n/a	n/a	n/a	54
108.46	0	button press	n/a	n/a	n/a	n/a	n/a	54
108.69	0	button press	n/a	n/a	n/a	n/a	n/a	54
108.92	0	button press	n/a	n/a	n/a	n/a	n/a	54
114.88	4.83	NN	0.73	6	1	0	0	n/a
115.62	0	button press	n/a	n/a	n/a	n/a	n/a	50
116.91	0	button press	n/a	n/a	n/a	n/a	n/a	54
117.16	0	button press	n/a	n/a	n/a	n/a	n/a	54
117.45	0	button press	n/a	n/a	n/a	n/a	n/a	54
117.70	0	button press	n/a	n/a	n/a	n/a	n/a	54
121.66	4.83	YN	1.12	5	1	1	0	n/a
122.77	0	button press	n/a	n/a	n/a	n/a	n/a	50
123.76	0	button press	n/a	n/a	n/a	n/a	n/a	54
124.04	0	button press	n/a	n/a	n/a	n/a	n/a	54
127.78	4.83	NN	0.82	4	1	0	0	n/a
128.60	0	button press	n/a	n/a	n/a	n/a	n/a	50
130.13	0	button press	n/a	n/a	n/a	n/a	n/a	55
130.57	0	button press	n/a	n/a	n/a	n/a	n/a	55
135.06	4.83	YY	0.90	4	1	3	1	n/a
135.96	0	button press	n/a	n/a	n/a	n/a	n/a	51
137.21	0	button press	n/a	n/a	n/a	n/a	n/a	54
137.44	0	button press	n/a	n/a	n/a	n/a	n/a	54
137.79	0	button press	n/a	n/a	n/a	n/a	n/a	54
141.85	4.83	YN	0.78	5	1	1	0	n/a
142.63	0	button press	n/a	n/a	n/a	n/a	n/a	50
143.90	0	button press	n/a	n/a	n/a	n/a	n/a	54
144.17	0	button press	n/a	n/a	n/a	n/a	n/a	54
144.42	0	button press	n/a	n/a	n/a	n/a	n/a	54
144.72	0	button press	n/a	n/a	n/a	n/a	n/a	54
149.43	4.83	YN	1.05	4	1	3	0	n/a
150.48	0	button press	n/a	n/a	n/a	n/a	n/a	50
151.57	0	button press	n/a	n/a	n/a	n/a	n/a	54
151.84	0	button press	n/a	n/a	n/a	n/a	n/a	54
156.32	4.83	NN	0.75	6	1	0	0	n/a
157.07	0	button press	n/a	n/a	n/a	n/a	n/a	50
158.38	0	button press	n/a	n/a	n/a	n/a	n/a	54
158.67	0	button press	n/a	n/a	n/a	n/a	n/a	54
158.88	0	button press	n/a	n/a	n/a	n/a	n/a	54
159.22	0	button press	n/a	n/a	n/a	n/a	n/a	54
163.58	4.83	NN	0.98	5	1	0	0	n/a
164.56	0	button press	n/a	n/a	n/a	n/a	n/a	50
165.52	0	button press	n/a	n/a	n/a	n/a	n/a	54
165.81	0	button press	n/a	n/a	n/a	n/a	n/a	54
166.09	0	button press	n/a	n/a	n/a	n/a	n/a	54
172.02	4.83	YY	1.35	3	1	1	1	n/a
173.37	0	button press	n/a	n/a	n/a	n/a	n/a	51
174.33	0	button press	n/a	n/a	n/a	n/a	n/a	54
179.77	4.83	NN	0.98	4	1	0	0	n/a
180.76	0	button press	n/a	n/a	n/a	n/a	n/a	50
181.94	0	button press	n/a	n/a	n/a	n/a	n/a	54
182.27	0	button press	n/a	n/a	n/a	n/a	n/a	54
182.57	0	button press	n/a	n/a	n/a	n/a	n/a	54
187.35	4.83	NN	0.82	5	1	0	0	n/a
188.17	0	button press	n/a	n/a	n/a	n/a	n/a	50
189.98	0	button press	n/a	n/a	n/a	n/a	n/a	54
190.35	0	button press	n/a	n/a	n/a	n/a	n/a	54
194.66	4.83	NN	0.87	4	1	0	0	n/a
195.52	0	button press	n/a	n/a	n/a	n/a	n/a	50
197.07	0	button press	n/a	n/a	n/a	n/a	n/a	54
197.42	0	button press	n/a	n/a	n/a	n/a	n/a	54
197.77	0	button press	n/a	n/a	n/a	n/a	n/a	54
201.17	4.83	YY	1.32	4	1	1	1	n/a
202.48	0	button press	n/a	n/a	n/a	n/a	n/a	51
207.93	4.83	NN	0.82	4	1	0	0	n/a
208.74	0	button press	n/a	n/a	n/a	n/a	n/a	50
210.32	0	button press	n/a	n/a	n/a	n/a	n/a	55
215.65	4.83	NN	0.98	6	1	0	0	n/a
216.63	0	button press	n/a	n/a	n/a	n/a	n/a	50
217.63	0	button press	n/a	n/a	n/a	n/a	n/a	54
217.88	0	button press	n/a	n/a	n/a	n/a	n/a	54
218.10	0	button press	n/a	n/a	n/a	n/a	n/a	54
218.33	0	button press	n/a	n/a	n/a	n/a	n/a	54
222.56	4.83	YN	0.98	6	1	1	0	n/a
223.54	0	button press	n/a	n/a	n/a	n/a	n/a	50
224.54	0	button press	n/a	n/a	n/a	n/a	n/a	54
224.81	0	button press	n/a	n/a	n/a	n/a	n/a	54
225.06	0	button press	n/a	n/a	n/a	n/a	n/a	54
225.27	0	button press	n/a	n/a	n/a	n/a	n/a	54
228.73	4.83	NN	0.83	5	1	0	0	n/a
229.57	0	button press	n/a	n/a	n/a	n/a	n/a	50
231.10	0	button press	n/a	n/a	n/a	n/a	n/a	54
237.14	4.83	YN	1.17	5	1	1	0	n/a
238.31	0	button press	n/a	n/a	n/a	n/a	n/a	50
244.18	4.83	NN	0.90	4	1	0	0	n/a
245.08	0	button press	n/a	n/a	n/a	n/a	n/a	50
246.38	0	button press	n/a	n/a	n/a	n/a	n/a	55
246.73	0	button press	n/a	n/a	n/a	n/a	n/a	55
251.82	4.83	YY	0.90	5	1	3	1	n/a
252.72	0	button press	n/a	n/a	n/a	n/a	n/a	51
254.32	0	button press	n/a	n/a	n/a	n/a	n/a	54
258.62	4.83	NY	0.92	6	1	0	1	n/a
259.53	0	button press	n/a	n/a	n/a	n/a	n/a	51
260.81	0	button press	n/a	n/a	n/a	n/a	n/a	54
261.60	0	button press	n/a	n/a	n/a	n/a	n/a	54
265.09	4.83	YN	0.97	3	1	1	0	n/a
266.06	0	button press	n/a	n/a	n/a	n/a	n/a	50
267.47	0	button press	n/a	n/a	n/a	n/a	n/a	55
267.81	0	button press	n/a	n/a	n/a	n/a	n/a	55
268.12	0	button press	n/a	n/a	n/a	n/a	n/a	55
273.22	4.83	YY	0.93	5	1	3	1	n/a
274.15	0	button press	n/a	n/a	n/a	n/a	n/a	51
275.55	0	button press	n/a	n/a	n/a	n/a	n/a	54
275.91	0	button press	n/a	n/a	n/a	n/a	n/a	54
280.82	4.83	NN	0.80	5	1	0	0	n/a
281.62	0	button press	n/a	n/a	n/a	n/a	n/a	50
288.75	4.83	NN	0.92	5	1	0	0	n/a
289.66	0	button press	n/a	n/a	n/a	n/a	n/a	50
291.21	0	button press	n/a	n/a	n/a	n/a	n/a	54
291.94	0	button press	n/a	n/a	n/a	n/a	n/a	54
292.26	0	button press	n/a	n/a	n/a	n/a	n/a	54
292.58	0	button press	n/a	n/a	n/a	n/a	n/a	54
304.70	4.83	CA	1.20	1	0	1	3	n/a
305.90	0	button press	n/a	n/a	n/a	n/a	n/a	51
306.66	0	button press	n/a	n/a	n/a	n/a	n/a	55
306.91	0	button press	n/a	n/a	n/a	n/a	n/a	55
307.11	0	button press	n/a	n/a	n/a	n/a	n/a	55
307.33	0	button press	n/a	n/a	n/a	n/a	n/a	55
311.62	4.83	AA	0.88	5	0	3	3	n/a
312.50	0	button press	n/a	n/a	n/a	n/a	n/a	51
313.64	0	button press	n/a	n/a	n/a	n/a	n/a	54
313.89	0	button press	n/a	n/a	n/a	n/a	n/a	54
314.07	0	button press	n/a	n/a	n/a	n/a	n/a	54
314.27	0	button press	n/a	n/a	n/a	n/a	n/a	54
319.01	4.83	AA	0.88	4	0	3	3	n/a
319.90	0	button press	n/a	n/a	n/a	n/a	n/a	51
321.84	0	button press	n/a	n/a	n/a	n/a	n/a	55
322.16	0	button press	n/a	n/a	n/a	n/a	n/a	55
327.52	4.83	CC	0.97	1	0	1	1	n/a
328.49	0	button press	n/a	n/a	n/a	n/a	n/a	50
329.48	0	button press	n/a	n/a	n/a	n/a	n/a	55
329.72	0	button press	n/a	n/a	n/a	n/a	n/a	55
329.93	0	button press	n/a	n/a	n/a	n/a	n/a	55
330.17	0	button press	n/a	n/a	n/a	n/a	n/a	55
335.73	4.83	AC	1.33	4	0	3	1	n/a
337.06	0	button press	n/a	n/a	n/a	n/a	n/a	50
338.04	0	button press	n/a	n/a	n/a	n/a	n/a	55
343.15	4.83	AC	1.55	4	0	3	1	n/a
344.70	0	button press	n/a	n/a	n/a	n/a	n/a	50
345.53	0	button press	n/a	n/a	n/a	n/a	n/a	55
350.54	4.83	AA	1.43	3	0	3	3	n/a
351.97	0	button press	n/a	n/a	n/a	n/a	n/a	51
352.79	0	button press	n/a	n/a	n/a	n/a	n/a	55
353.22	0	button press	n/a	n/a	n/a	n/a	n/a	55
358.30	4.83	AA	1.17	6	0	3	3	n/a
359.47	0	button press	n/a	n/a	n/a	n/a	n/a	51
360.20	0	button press	n/a	n/a	n/a	n/a	n/a	54
360.38	0	button press	n/a	n/a	n/a	n/a	n/a	54
360.55	0	button press	n/a	n/a	n/a	n/a	n/a	54
365.04	4.83	CA	1.33	1	0	1	3	n/a
366.38	0	button press	n/a	n/a	n/a	n/a	n/a	51
367.12	0	button press	n/a	n/a	n/a	n/a	n/a	55
367.34	0	button press	n/a	n/a	n/a	n/a	n/a	55
367.54	0	button press	n/a	n/a	n/a	n/a	n/a	55
373.32	4.83	CC	1.48	2	0	1	1	n/a
374.80	0	button press	n/a	n/a	n/a	n/a	n/a	50
375.76	0	button press	n/a	n/a	n/a	n/a	n/a	55
381.19	4.83	missed_trial	n/a	n/a	0	3	n/a	n/a
382.86	0	button press	n/a	n/a	n/a	n/a	n/a	50
389.27	4.83	AC	1.20	2	0	3	1	n/a
390.46	0	button press	n/a	n/a	n/a	n/a	n/a	50
391.66	0	button press	n/a	n/a	n/a	n/a	n/a	55
397.66	4.83	CA	1.45	1	0	1	3	n/a
399.10	0	button press	n/a	n/a	n/a	n/a	n/a	51
399.75	0	button press	n/a	n/a	n/a	n/a	n/a	55
399.99	0	button press	n/a	n/a	n/a	n/a	n/a	55
400.20	0	button press	n/a	n/a	n/a	n/a	n/a	55
403.85	4.83	CC	1.25	5	0	1	1	n/a
405.10	0	button press	n/a	n/a	n/a	n/a	n/a	50
406.84	0	button press	n/a	n/a	n/a	n/a	n/a	55
412.34	4.83	AA	0.92	2	0	3	3	n/a
413.25	0	button press	n/a	n/a	n/a	n/a	n/a	51
414.47	0	button press	n/a	n/a	n/a	n/a	n/a	55
415.05	0	button press	n/a	n/a	n/a	n/a	n/a	55
415.63	0	button press	n/a	n/a	n/a	n/a	n/a	55
420.90	4.83	CC	1.07	1	0	1	1	n/a
421.96	0	button press	n/a	n/a	n/a	n/a	n/a	50
423.21	0	button press	n/a	n/a	n/a	n/a	n/a	55
423.46	0	button press	n/a	n/a	n/a	n/a	n/a	55
423.71	0	button press	n/a	n/a	n/a	n/a	n/a	55
423.92	0	button press	n/a	n/a	n/a	n/a	n/a	55
424.17	0	button press	n/a	n/a	n/a	n/a	n/a	55
426.64	4.83	AA	1.37	3	0	3	3	n/a
428.00	0	button press	n/a	n/a	n/a	n/a	n/a	51
428.82	0	button press	n/a	n/a	n/a	n/a	n/a	55
433.40	4.83	CA	1.13	5	0	1	3	n/a
434.53	0	button press	n/a	n/a	n/a	n/a	n/a	51
440.16	4.83	CA	0.88	1	0	1	3	n/a
441.04	0	button press	n/a	n/a	n/a	n/a	n/a	51
442.72	0	button press	n/a	n/a	n/a	n/a	n/a	55
446.38	4.83	AA	1.10	1	0	3	3	n/a
447.48	0	button press	n/a	n/a	n/a	n/a	n/a	51
448.43	0	button press	n/a	n/a	n/a	n/a	n/a	55
448.70	0	button press	n/a	n/a	n/a	n/a	n/a	55
448.90	0	button press	n/a	n/a	n/a	n/a	n/a	55
449.10	0	button press	n/a	n/a	n/a	n/a	n/a	55
449.28	0	button press	n/a	n/a	n/a	n/a	n/a	55
454.76	4.83	CC	0.93	2	0	1	1	n/a
455.69	0	button press	n/a	n/a	n/a	n/a	n/a	50
457.00	0	button press	n/a	n/a	n/a	n/a	n/a	55
462.76	4.83	AA	1.23	5	0	3	3	n/a
464.00	0	button press	n/a	n/a	n/a	n/a	n/a	51
464.84	0	button press	n/a	n/a	n/a	n/a	n/a	54
465.04	0	button press	n/a	n/a	n/a	n/a	n/a	54
465.28	0	button press	n/a	n/a	n/a	n/a	n/a	54
471.15	4.83	CA	1.30	1	0	1	3	n/a
472.45	0	button press	n/a	n/a	n/a	n/a	n/a	51
473.35	0	button press	n/a	n/a	n/a	n/a	n/a	55
473.59	0	button press	n/a	n/a	n/a	n/a	n/a	55
473.77	0	button press	n/a	n/a	n/a	n/a	n/a	55
473.95	0	button press	n/a	n/a	n/a	n/a	n/a	55
474.37	0	button press	n/a	n/a	n/a	n/a	n/a	55
477.40	4.83	AA	1.25	6	0	3	3	n/a
478.64	0	button press	n/a	n/a	n/a	n/a	n/a	51
479.28	0	button press	n/a	n/a	n/a	n/a	n/a	54
485.44	4.83	AC	1.40	1	0	3	1	n/a
486.84	0	button press	n/a	n/a	n/a	n/a	n/a	50
494.03	4.83	CA	1.12	1	0	1	3	n/a
495.14	0	button press	n/a	n/a	n/a	n/a	n/a	51
496.32	0	button press	n/a	n/a	n/a	n/a	n/a	55
496.59	0	button press	n/a	n/a	n/a	n/a	n/a	55
496.81	0	button press	n/a	n/a	n/a	n/a	n/a	55
500.27	4.83	CC	1.28	1	0	1	1	n/a
501.55	0	button press	n/a	n/a	n/a	n/a	n/a	50
508.59	4.83	AA	1.40	6	0	3	3	n/a
509.99	0	button press	n/a	n/a	n/a	n/a	n/a	51
510.91	0	button press	n/a	n/a	n/a	n/a	n/a	54
511.69	0	button press	n/a	n/a	n/a	n/a	n/a	54
515.79	4.83	CC	1.13	4	0	1	1	n/a
516.92	0	button press	n/a	n/a	n/a	n/a	n/a	50
517.93	0	button press	n/a	n/a	n/a	n/a	n/a	54
523.13	4.83	CA	1.05	3	0	1	3	n/a
524.18	0	button press	n/a	n/a	n/a	n/a	n/a	51
525.71	0	button press	n/a	n/a	n/a	n/a	n/a	54
529.25	4.83	CC	1.12	3	0	1	1	n/a
530.37	0	button press	n/a	n/a	n/a	n/a	n/a	50
536.43	4.83	AA	1.08	1	0	3	3	n/a
537.51	0	button press	n/a	n/a	n/a	n/a	n/a	51
538.41	0	button press	n/a	n/a	n/a	n/a	n/a	55
538.64	0	button press	n/a	n/a	n/a	n/a	n/a	55
538.84	0	button press	n/a	n/a	n/a	n/a	n/a	55
539.09	0	button press	n/a	n/a	n/a	n/a	n/a	55
539.32	0	button press	n/a	n/a	n/a	n/a	n/a	55
543.09	4.83	CC	1.17	4	0	1	1	n/a
544.25	0	button press	n/a	n/a	n/a	n/a	n/a	50
545.03	0	button press	n/a	n/a	n/a	n/a	n/a	54
545.25	0	button press	n/a	n/a	n/a	n/a	n/a	54
545.47	0	button press	n/a	n/a	n/a	n/a	n/a	54
549.45	4.83	AC	1.22	1	0	3	1	n/a
550.66	0	button press	n/a	n/a	n/a	n/a	n/a	50
551.44	0	button press	n/a	n/a	n/a	n/a	n/a	55
551.69	0	button press	n/a	n/a	n/a	n/a	n/a	55
551.93	0	button press	n/a	n/a	n/a	n/a	n/a	55
552.14	0	button press	n/a	n/a	n/a	n/a	n/a	55
552.36	0	button press	n/a	n/a	n/a	n/a	n/a	55
558.05	4.83	CC	1.05	3	0	1	1	n/a
559.10	0	button press	n/a	n/a	n/a	n/a	n/a	50
560.53	0	button press	n/a	n/a	n/a	n/a	n/a	55
560.88	0	button press	n/a	n/a	n/a	n/a	n/a	55
561.17	0	button press	n/a	n/a	n/a	n/a	n/a	55
565.21	4.83	AA	1.22	4	0	3	3	n/a
566.43	0	button press	n/a	n/a	n/a	n/a	n/a	51
568.22	0	button press	n/a	n/a	n/a	n/a	n/a	55
571.05	4.83	AA	0.95	6	0	3	3	n/a
572.00	0	button press	n/a	n/a	n/a	n/a	n/a	51
573.27	0	button press	n/a	n/a	n/a	n/a	n/a	54
573.50	0	button press	n/a	n/a	n/a	n/a	n/a	54
577.40	4.83	CC	0.95	6	0	1	1	n/a
578.35	0	button press	n/a	n/a	n/a	n/a	n/a	50
579.48	0	button press	n/a	n/a	n/a	n/a	n/a	54
585.89	4.83	CC	1.02	6	0	1	1	n/a
586.90	0	button press	n/a	n/a	n/a	n/a	n/a	50
588.07	0	button press	n/a	n/a	n/a	n/a	n/a	54
594.21	4.83	missed_trial	n/a	n/a	0	3	n/a	n/a
595.83	0	button press	n/a	n/a	n/a	n/a	n/a	50
