onset	duration	trial_type	response_time	confidence	detection	stimulus	response	key_id
10.03	4.83	AA	0.74	2	0	3	3	n/a
10.77	0	button press	n/a	n/a	n/a	n/a	n/a	50
16.60	4.83	CA	1.33	4	0	1	3	n/a
17.93	0	button press	n/a	n/a	n/a	n/a	n/a	50
19.68	0	button press	n/a	n/a	n/a	n/a	n/a	55
24.51	4.83	AA	0.65	4	0	3	3	n/a
25.15	0	button press	n/a	n/a	n/a	n/a	n/a	50
30.88	4.83	CA	0.95	6	0	1	3	n/a
31.83	0	button press	n/a	n/a	n/a	n/a	n/a	50
32.68	0	button press	n/a	n/a	n/a	n/a	n/a	54
38.47	4.83	AC	0.62	3	0	3	1	n/a
39.09	0	button press	n/a	n/a	n/a	n/a	n/a	51
44.72	4.83	CC	0.52	6	0	1	1	n/a
45.23	0	button press	n/a	n/a	n/a	n/a	n/a	51
46.51	0	button press	n/a	n/a	n/a	n/a	n/a	54
46.91	0	button press	n/a	n/a	n/a	n/a	n/a	54
47.15	0	button press	n/a	n/a	n/a	n/a	n/a	54
47.35	0	button press	n/a	n/a	n/a	n/a	n/a	54
52.74	4.83	CA	0.88	4	0	1	3	n/a
53.62	0	button press	n/a	n/a	n/a	n/a	n/a	50
54.87	0	button press	n/a	n/a	n/a	n/a	n/a	55
59.00	4.83	AA	0.67	6	0	3	3	n/a
59.66	0	button press	n/a	n/a	n/a	n/a	n/a	50
60.83	0	button press	n/a	n/a	n/a	n/a	n/a	54
61.08	0	button press	n/a	n/a	n/a	n/a	n/a	54
61.28	0	button press	n/a	n/a	n/a	n/a	n/a	54
64.73	4.83	AC	0.88	3	0	3	1	n/a
65.61	0	button press	n/a	n/a	n/a	n/a	n/a	51
66.76	0	button press	n/a	n/a	n/a	n/a	n/a	55
67.04	0	button press	n/a	n/a	n/a	n/a	n/a	55
67.24	0	button press	n/a	n/a	n/a	n/a	n/a	55
72.50	4.83	CA	0.70	5	0	1	3	n/a
73.20	0	button press	n/a	n/a	n/a	n/a	n/a	50
80.49	4.83	AA	0.63	4	0	3	3	n/a
81.12	0	button press	n/a	n/a	n/a	n/a	n/a	50
84.45	0	button press	n/a	n/a	n/a	n/a	n/a	54
87.60	4.83	CA	0.72	6	0	1	3	n/a
88.32	0	button press	n/a	n/a	n/a	n/a	n/a	50
89.41	0	button press	n/a	n/a	n/a	n/a	n/a	54
89.81	0	button press	n/a	n/a	n/a	n/a	n/a	54
94.66	4.83	AC	0.67	4	0	3	1	n/a
95.32	0	button press	n/a	n/a	n/a	n/a	n/a	51
97.26	0	button press	n/a	n/a	n/a	n/a	n/a	54
102.73	4.83	AA	0.62	6	0	3	3	n/a
103.35	0	button press	n/a	n/a	n/a	n/a	n/a	50
104.56	0	button press	n/a	n/a	n/a	n/a	n/a	54
104.78	0	button press	n/a	n/a	n/a	n/a	n/a	54
104.96	0	button press	n/a	n/a	n/a	n/a	n/a	54
105.18	0	button press	n/a	n/a	n/a	n/a	n/a	54
109.03	4.83	AA	0.82	1	0	3	3	n/a
109.84	0	button press	n/a	n/a	n/a	n/a	n/a	50
110.69	0	button press	n/a	n/a	n/a	n/a	n/a	55
116.02	4.83	AA	0.63	3	0	3	3	n/a
116.65	0	button press	n/a	n/a	n/a	n/a	n/a	50
118.61	0	button press	n/a	n/a	n/a	n/a	n/a	55
122.91	4.83	CA	0.65	2	0	1	3	n/a
123.56	0	button press	n/a	n/a	n/a	n/a	n/a	50
124.96	0	button press	n/a	n/a	n/a	n/a	n/a	55
125.27	0	button press	n/a	n/a	n/a	n/a	n/a	55
125.51	0	button press	n/a	n/a	n/a	n/a	n/a	55
125.72	0	button press	n/a	n/a	n/a	n/a	n/a	55
131.25	4.83	AC	0.98	5	0	3	1	n/a
132.23	0	button press	n/a	n/a	n/a	n/a	n/a	51
138.86	4.83	AC	0.53	6	0	3	1	n/a
139.39	0	button press	n/a	n/a	n/a	n/a	n/a	51
140.62	0	button press	n/a	n/a	n/a	n/a	n/a	54
140.84	0	button press	n/a	n/a	n/a	n/a	n/a	54
141.04	0	button press	n/a	n/a	n/a	n/a	n/a	54
141.25	0	button press	n/a	n/a	n/a	n/a	n/a	54
146.88	4.83	AA	1.17	2	0	3	3	n/a
148.05	0	button press	n/a	n/a	n/a	n/a	n/a	50
148.98	0	button press	n/a	n/a	n/a	n/a	n/a	55
155.26	4.83	CC	0.95	4	0	1	1	n/a
156.20	0	button press	n/a	n/a	n/a	n/a	n/a	51
157.40	0	button press	n/a	n/a	n/a	n/a	n/a	55
157.92	0	button press	n/a	n/a	n/a	n/a	n/a	55
161.30	4.83	CC	0.67	6	0	1	1	n/a
161.96	0	button press	n/a	n/a	n/a	n/a	n/a	51
163.06	0	button press	n/a	n/a	n/a	n/a	n/a	54
163.28	0	button press	n/a	n/a	n/a	n/a	n/a	54
169.74	4.83	AA	0.52	5	0	3	3	n/a
170.26	0	button press	n/a	n/a	n/a	n/a	n/a	50
177.73	4.83	CA	0.58	4	0	1	3	n/a
178.31	0	button press	n/a	n/a	n/a	n/a	n/a	50
179.73	0	button press	n/a	n/a	n/a	n/a	n/a	54
180.09	0	button press	n/a	n/a	n/a	n/a	n/a	54
180.54	0	button press	n/a	n/a	n/a	n/a	n/a	54
183.87	4.83	CC	0.58	6	0	1	1	n/a
184.46	0	button press	n/a	n/a	n/a	n/a	n/a	51
186.70	0	button press	n/a	n/a	n/a	n/a	n/a	54
186.97	0	button press	n/a	n/a	n/a	n/a	n/a	54
192.18	4.83	AA	0.58	5	0	3	3	n/a
192.76	0	button press	n/a	n/a	n/a	n/a	n/a	50
199.21	4.83	CA	0.75	6	0	1	3	n/a
199.95	0	button press	n/a	n/a	n/a	n/a	n/a	50
201.02	0	button press	n/a	n/a	n/a	n/a	n/a	54
201.27	0	button press	n/a	n/a	n/a	n/a	n/a	54
201.49	0	button press	n/a	n/a	n/a	n/a	n/a	54
201.67	0	button press	n/a	n/a	n/a	n/a	n/a	54
207.35	4.83	AA	0.58	3	0	3	3	n/a
207.93	0	button press	n/a	n/a	n/a	n/a	n/a	50
215.55	4.83	CC	0.67	6	0	1	1	n/a
216.22	0	button press	n/a	n/a	n/a	n/a	n/a	51
217.40	0	button press	n/a	n/a	n/a	n/a	n/a	54
217.92	0	button press	n/a	n/a	n/a	n/a	n/a	54
222.10	4.83	CC	0.55	2	0	1	1	n/a
222.65	0	button press	n/a	n/a	n/a	n/a	n/a	51
223.94	0	button press	n/a	n/a	n/a	n/a	n/a	55
229.19	4.83	CA	0.58	4	0	1	3	n/a
229.77	0	button press	n/a	n/a	n/a	n/a	n/a	50
231.37	0	button press	n/a	n/a	n/a	n/a	n/a	54
237.03	4.83	AA	0.58	1	0	3	3	n/a
237.61	0	button press	n/a	n/a	n/a	n/a	n/a	50
239.64	0	button press	n/a	n/a	n/a	n/a	n/a	55
244.10	4.83	CC	0.80	4	0	1	1	n/a
244.90	0	button press	n/a	n/a	n/a	n/a	n/a	51
246.02	0	button press	n/a	n/a	n/a	n/a	n/a	54
249.81	4.83	AC	0.52	6	0	3	1	n/a
250.33	0	button press	n/a	n/a	n/a	n/a	n/a	51
251.41	0	button press	n/a	n/a	n/a	n/a	n/a	54
251.66	0	button press	n/a	n/a	n/a	n/a	n/a	54
252.16	0	button press	n/a	n/a	n/a	n/a	n/a	54
252.38	0	button press	n/a	n/a	n/a	n/a	n/a	54
252.73	0	button press	n/a	n/a	n/a	n/a	n/a	54
257.99	4.83	CA	0.73	2	0	1	3	n/a
258.72	0	button press	n/a	n/a	n/a	n/a	n/a	50
265.86	4.83	CC	0.65	3	0	1	1	n/a
266.51	0	button press	n/a	n/a	n/a	n/a	n/a	51
273.42	4.83	AA	0.58	6	0	3	3	n/a
274.00	0	button press	n/a	n/a	n/a	n/a	n/a	50
275.63	0	button press	n/a	n/a	n/a	n/a	n/a	54
276.63	0	button press	n/a	n/a	n/a	n/a	n/a	54
277.38	0	button press	n/a	n/a	n/a	n/a	n/a	54
279.33	4.83	AA	0.65	3	0	3	3	n/a
279.98	0	button press	n/a	n/a	n/a	n/a	n/a	50
287.35	4.83	CA	0.67	6	0	1	3	n/a
288.02	0	button press	n/a	n/a	n/a	n/a	n/a	50
289.62	0	button press	n/a	n/a	n/a	n/a	n/a	54
289.90	0	button press	n/a	n/a	n/a	n/a	n/a	54
294.01	4.83	CC	0.85	2	0	1	1	n/a
294.86	0	button press	n/a	n/a	n/a	n/a	n/a	51
295.86	0	button press	n/a	n/a	n/a	n/a	n/a	55
296.11	0	button press	n/a	n/a	n/a	n/a	n/a	55
296.33	0	button press	n/a	n/a	n/a	n/a	n/a	55
296.73	0	button press	n/a	n/a	n/a	n/a	n/a	55
311.96	4.83	YY	1.07	6	1	1	1	n/a
313.03	0	button press	n/a	n/a	n/a	n/a	n/a	50
313.81	0	button press	n/a	n/a	n/a	n/a	n/a	54
314.02	0	button press	n/a	n/a	n/a	n/a	n/a	54
314.21	0	button press	n/a	n/a	n/a	n/a	n/a	54
319.63	4.83	NN	0.87	3	1	0	0	n/a
320.50	0	button press	n/a	n/a	n/a	n/a	n/a	51
321.48	0	button press	n/a	n/a	n/a	n/a	n/a	55
326.91	4.83	YY	0.92	4	1	3	1	n/a
327.82	0	button press	n/a	n/a	n/a	n/a	n/a	50
329.29	0	button press	n/a	n/a	n/a	n/a	n/a	54
329.96	0	button press	n/a	n/a	n/a	n/a	n/a	54
334.43	4.83	YY	0.78	6	1	1	1	n/a
335.22	0	button press	n/a	n/a	n/a	n/a	n/a	50
336.30	0	button press	n/a	n/a	n/a	n/a	n/a	54
341.38	4.83	YN	0.82	5	1	1	0	n/a
342.19	0	button press	n/a	n/a	n/a	n/a	n/a	51
343.76	0	button press	n/a	n/a	n/a	n/a	n/a	55
348.32	4.83	NY	0.65	4	1	0	1	n/a
348.97	0	button press	n/a	n/a	n/a	n/a	n/a	50
350.33	0	button press	n/a	n/a	n/a	n/a	n/a	54
350.55	0	button press	n/a	n/a	n/a	n/a	n/a	54
356.62	4.83	NN	0.67	6	1	0	0	n/a
357.29	0	button press	n/a	n/a	n/a	n/a	n/a	51
363.58	4.83	NY	0.57	6	1	0	1	n/a
364.15	0	button press	n/a	n/a	n/a	n/a	n/a	50
365.40	0	button press	n/a	n/a	n/a	n/a	n/a	54
369.21	4.83	NN	1.37	3	1	0	0	n/a
369.93	0	button press	n/a	n/a	n/a	n/a	n/a	55
370.58	0	button press	n/a	n/a	n/a	n/a	n/a	51
376.09	4.83	YY	0.68	5	1	1	1	n/a
376.77	0	button press	n/a	n/a	n/a	n/a	n/a	50
377.88	0	button press	n/a	n/a	n/a	n/a	n/a	54
378.12	0	button press	n/a	n/a	n/a	n/a	n/a	54
378.30	0	button press	n/a	n/a	n/a	n/a	n/a	54
383.89	4.83	NN	0.75	3	1	0	0	n/a
384.64	0	button press	n/a	n/a	n/a	n/a	n/a	51
389.69	4.83	NY	0.82	5	1	0	1	n/a
390.50	0	button press	n/a	n/a	n/a	n/a	n/a	50
391.55	0	button press	n/a	n/a	n/a	n/a	n/a	54
391.80	0	button press	n/a	n/a	n/a	n/a	n/a	54
392.48	0	button press	n/a	n/a	n/a	n/a	n/a	54
393.15	0	button press	n/a	n/a	n/a	n/a	n/a	54
397.25	4.83	YY	0.77	6	1	3	1	n/a
398.01	0	button press	n/a	n/a	n/a	n/a	n/a	50
399.06	0	button press	n/a	n/a	n/a	n/a	n/a	54
405.19	4.83	YY	0.73	3	1	3	1	n/a
405.92	0	button press	n/a	n/a	n/a	n/a	n/a	50
407.57	0	button press	n/a	n/a	n/a	n/a	n/a	55
407.88	0	button press	n/a	n/a	n/a	n/a	n/a	55
408.33	0	button press	n/a	n/a	n/a	n/a	n/a	55
413.08	4.83	YY	0.75	4	1	3	1	n/a
413.83	0	button press	n/a	n/a	n/a	n/a	n/a	50
415.11	0	button press	n/a	n/a	n/a	n/a	n/a	54
415.36	0	button press	n/a	n/a	n/a	n/a	n/a	54
415.59	0	button press	n/a	n/a	n/a	n/a	n/a	54
421.10	4.83	YY	0.57	6	1	3	1	n/a
421.67	0	button press	n/a	n/a	n/a	n/a	n/a	50
422.72	0	button press	n/a	n/a	n/a	n/a	n/a	54
422.95	0	button press	n/a	n/a	n/a	n/a	n/a	54
428.58	4.83	YY	1.15	2	1	3	1	n/a
429.72	0	button press	n/a	n/a	n/a	n/a	n/a	50
431.29	0	button press	n/a	n/a	n/a	n/a	n/a	54
435.39	4.83	NY	1.07	4	1	0	1	n/a
436.45	0	button press	n/a	n/a	n/a	n/a	n/a	50
437.63	0	button press	n/a	n/a	n/a	n/a	n/a	55
437.95	0	button press	n/a	n/a	n/a	n/a	n/a	55
442.61	4.83	YN	0.65	6	1	1	0	n/a
443.26	0	button press	n/a	n/a	n/a	n/a	n/a	51
444.42	0	button press	n/a	n/a	n/a	n/a	n/a	54
444.64	0	button press	n/a	n/a	n/a	n/a	n/a	54
450.85	4.83	YN	0.95	2	1	1	0	n/a
451.80	0	button press	n/a	n/a	n/a	n/a	n/a	51
453.31	0	button press	n/a	n/a	n/a	n/a	n/a	54
458.14	4.83	NN	0.67	6	1	0	0	n/a
458.81	0	button press	n/a	n/a	n/a	n/a	n/a	51
459.92	0	button press	n/a	n/a	n/a	n/a	n/a	54
460.17	0	button press	n/a	n/a	n/a	n/a	n/a	54
460.41	0	button press	n/a	n/a	n/a	n/a	n/a	54
465.77	4.83	YN	0.93	6	1	3	0	n/a
466.70	0	button press	n/a	n/a	n/a	n/a	n/a	51
472.33	4.83	NN	0.85	3	1	0	0	n/a
473.17	0	button press	n/a	n/a	n/a	n/a	n/a	51
474.51	0	button press	n/a	n/a	n/a	n/a	n/a	55
474.92	0	button press	n/a	n/a	n/a	n/a	n/a	55
476.24	0	button press	n/a	n/a	n/a	n/a	n/a	54
480.30	4.83	YN	0.67	1	1	1	0	n/a
480.97	0	button press	n/a	n/a	n/a	n/a	n/a	51
482.05	0	button press	n/a	n/a	n/a	n/a	n/a	55
482.26	0	button press	n/a	n/a	n/a	n/a	n/a	55
488.54	4.83	YY	0.98	4	1	3	1	n/a
489.52	0	button press	n/a	n/a	n/a	n/a	n/a	50
496.41	4.83	YY	0.96	6	1	3	1	n/a
497.37	0	button press	n/a	n/a	n/a	n/a	n/a	50
498.45	0	button press	n/a	n/a	n/a	n/a	n/a	54
498.70	0	button press	n/a	n/a	n/a	n/a	n/a	54
498.91	0	button press	n/a	n/a	n/a	n/a	n/a	54
499.13	0	button press	n/a	n/a	n/a	n/a	n/a	54
499.34	0	button press	n/a	n/a	n/a	n/a	n/a	54
503.94	4.83	NY	1.05	1	1	0	1	n/a
504.99	0	button press	n/a	n/a	n/a	n/a	n/a	50
505.79	0	button press	n/a	n/a	n/a	n/a	n/a	55
506.09	0	button press	n/a	n/a	n/a	n/a	n/a	55
506.27	0	button press	n/a	n/a	n/a	n/a	n/a	55
506.67	0	button press	n/a	n/a	n/a	n/a	n/a	55
507.04	0	button press	n/a	n/a	n/a	n/a	n/a	55
511.58	4.83	NN	0.63	6	1	0	0	n/a
512.21	0	button press	n/a	n/a	n/a	n/a	n/a	51
513.38	0	button press	n/a	n/a	n/a	n/a	n/a	54
513.61	0	button press	n/a	n/a	n/a	n/a	n/a	54
517.76	4.83	NN	1.05	4	1	0	0	n/a
518.81	0	button press	n/a	n/a	n/a	n/a	n/a	51
522.87	0	button press	n/a	n/a	n/a	n/a	n/a	54
524.03	4.83	NN	0.73	3	1	0	0	n/a
524.77	0	button press	n/a	n/a	n/a	n/a	n/a	51
531.46	4.83	NY	0.93	3	1	0	1	n/a
532.39	0	button press	n/a	n/a	n/a	n/a	n/a	50
535.17	0	button press	n/a	n/a	n/a	n/a	n/a	54
538.23	4.83	NN	0.64	5	1	0	0	n/a
538.87	0	button press	n/a	n/a	n/a	n/a	n/a	51
540.10	0	button press	n/a	n/a	n/a	n/a	n/a	54
540.38	0	button press	n/a	n/a	n/a	n/a	n/a	54
540.56	0	button press	n/a	n/a	n/a	n/a	n/a	54
541.00	0	button press	n/a	n/a	n/a	n/a	n/a	54
544.88	4.83	YN	0.85	4	1	3	0	n/a
545.72	0	button press	n/a	n/a	n/a	n/a	n/a	51
547.24	0	button press	n/a	n/a	n/a	n/a	n/a	55
547.56	0	button press	n/a	n/a	n/a	n/a	n/a	55
551.49	4.83	NY	0.60	2	1	0	1	n/a
552.08	0	button press	n/a	n/a	n/a	n/a	n/a	50
557.64	4.83	YY	0.73	6	1	1	1	n/a
558.38	0	button press	n/a	n/a	n/a	n/a	n/a	50
559.41	0	button press	n/a	n/a	n/a	n/a	n/a	54
559.61	0	button press	n/a	n/a	n/a	n/a	n/a	54
559.81	0	button press	n/a	n/a	n/a	n/a	n/a	54
559.98	0	button press	n/a	n/a	n/a	n/a	n/a	54
560.17	0	button press	n/a	n/a	n/a	n/a	n/a	54
564.05	4.83	NN	0.63	6	1	0	0	n/a
564.69	0	button press	n/a	n/a	n/a	n/a	n/a	51
565.92	0	button press	n/a	n/a	n/a	n/a	n/a	54
566.15	0	button press	n/a	n/a	n/a	n/a	n/a	54
566.33	0	button press	n/a	n/a	n/a	n/a	n/a	54
571.90	4.83	YY	0.78	4	1	1	1	n/a
572.68	0	button press	n/a	n/a	n/a	n/a	n/a	50
574.62	0	button press	n/a	n/a	n/a	n/a	n/a	54
579.10	4.83	NN	0.86	2	1	0	0	n/a
579.97	0	button press	n/a	n/a	n/a	n/a	n/a	51
585.83	4.83	NN	0.62	6	1	0	0	n/a
586.45	0	button press	n/a	n/a	n/a	n/a	n/a	51
587.51	0	button press	n/a	n/a	n/a	n/a	n/a	54
593.06	4.83	YY	0.88	4	1	1	1	n/a
593.94	0	button press	n/a	n/a	n/a	n/a	n/a	50
